Time (s),Linear Acceleration x (m/s^2),Linear Acceleration y (m/s^2),Linear Acceleration z (m/s^2),Absolute acceleration (m/s^2)
0.067966108,-0.384844899177551,0.23804759979248,-0.109718084335327,0.465628944783456
0.072720587,-0.399660229682922,0.0919761657714844,-0.0346722602844238,0.411570261186909
0.077475118,-0.403185665607452,0.0111665725708008,0.103718996047974,0.416462487428944
0.082229649,-0.414866209030151,0.00514984130859375,0.133094787597656,0.43572320886799
0.086984128,-0.438141047954559,0.157511711120605,0.0869810581207275,0.473648837763445
0.09173866,-0.465362131595612,0.30364990234375,-0.0209810733795166,0.556062390525323
0.096493139,-0.460508704185486,0.359002113342285,-0.0125107765197754,0.584043922615372
0.10124767,-0.275598585605621,0.305365562438965,-0.00472021102905273,0.411369648252813
0.106002149,-0.0454791784286499,0.207151412963867,-0.100717544555664,0.234785194049356
0.110756628,0.1663978099823,0.142577171325684,-0.160031795501709,0.271342323498638
0.115511108,0.245263576507568,0.0752849578857422,-0.112616300582886,0.280186505745935
0.120265691,0.248290657997131,0.0275783538818359,-0.0837199687957764,0.2634726733964
0.12502017,0.310945868492126,-0.0336208343505859,-0.115411758422852,0.333373015730138
0.129774701,0.280296206474304,-0.0737857818603516,-0.072887659072876,0.298869395913588
0.13452918,0.32468169927597,-0.0529422760009766,0.086449146270752,0.340139008824094
0.139283712,0.47301584482193,0.00110530853271484,0.118175506591797,0.487555803491031
0.144038191,0.634621202945709,0.0963802337646484,-0.0343565940856934,0.642816922806141
0.148792722,0.807309031486511,0.204065322875977,-0.171685934066772,0.85021561281627
0.153547201,0.935964226722717,0.211338996887207,-0.269746780395508,0.996722895715598
0.158301733,0.981121420860291,0.158795356750488,-0.341879606246948,1.05104560936431
0.163056212,0.998884379863739,0.0253276824951172,-0.30384373664856,1.04438140166172
0.167810743,0.863154411315918,-0.117367744445801,-0.173056125640869,0.888121133535427
0.172565222,0.664276361465454,-0.137534141540527,-0.102486133575439,0.686062775601705
0.177319753,0.484692573547363,-0.113287925720215,-0.0342621803283691,0.498933805195448
0.182074233,0.286159038543701,-0.0691566467285156,-0.0259609222412109,0.29553951784931
0.186828764,0.0362812280654907,0.0454072952270508,-0.061847448348999,0.0848720026690711
0.191583243,-0.129313349723816,0.119462013244629,-0.0177764892578125,0.176943828927677
0.196337774,-0.190334320068359,0.126418113708496,0.094796895980835,0.247376523455845
0.201092253,-0.177880108356476,0.10072135925293,0.0950784683227539,0.225446313558839
0.205846785,-0.145068824291229,0.0362224578857422,0.0489509105682373,0.157331566705425
0.210601264,-0.103908181190491,-0.0498847961425781,0.00423359870910645,0.11534004665567
0.215355795,-0.107952356338501,-0.0755701065063477,-0.0509319305419922,0.141274958096436
0.220110274,-0.170044243335724,-0.119363784790039,-0.0906765460968018,0.226682583854753
0.224864805,-0.223634839057922,-0.152820587158203,-0.138879776000977,0.304391631425574
0.229619337,-0.294746398925781,-0.187895774841309,-0.25611400604248,0.433329719698591
0.234373816,-0.410996079444885,-0.180205345153809,-0.349701046943665,0.568931073131504
0.239128347,-0.564435303211212,-0.15644645690918,-0.371102690696716,0.693382947895974
0.243882826,-0.747557282447815,-0.147320747375488,-0.366459369659424,0.845480787930286
0.248637358,-0.889840245246887,-0.164231300354004,-0.265895366668701,0.943126676588511
0.253391837,-0.95509546995163,-0.201907157897949,-0.181501626968384,0.992933380305407
0.258146368,-0.952155351638794,-0.152155876159668,-0.19255542755127,0.983274537951514
0.262900847,-0.86832994222641,0.0137720108032227,-0.25737190246582,0.905774173305554
0.267655378,-0.728557586669922,0.14833927154541,-0.274194955825806,0.792454144021747
0.272409858,-0.547654867172241,0.21238899230957,-0.31913435459137,0.668492089610767
0.277164389,-0.448153704404831,0.291813850402832,-0.492682218551636,0.727140175300238
0.281918868,-0.402528911828995,0.407599449157715,-0.569960594177246,0.808097713600767
0.286673399,-0.330060362815857,0.509889602661133,-0.374516725540161,0.713575523482545
0.29142793,-0.266503930091858,0.516704559326172,-0.385360479354858,0.697503150839812
0.29618241,-0.197287857532501,0.448464393615723,-0.469310641288757,0.67845065339916
0.300936941,-0.328974276781082,0.379274368286133,-0.498188734054565,0.707294235775587
0.30569142,-0.57135021686554,0.250298500061035,-0.383455038070679,0.732207740785966
0.310445951,-0.739520728588104,0.116572380065918,-0.24735701084137,0.788457683466964
0.31520043,-0.820998847484589,0.0651445388793945,-0.12535834312439,0.833065203155026
0.319954962,-0.814946413040161,0.0593442916870117,-0.0195314884185791,0.817337678149431
0.324709441,-0.732297003269196,0.0654516220092773,0.01171875,0.735309557208562
0.329463972,-0.585816085338593,0.12565803527832,-0.011594295501709,0.599253581849639
0.334218451,-0.371568143367767,0.194405555725098,-0.0345454216003418,0.420772850141379
0.338972983,-0.160974144935608,0.269232749938965,-0.0241949558258057,0.314617775824666
0.343727462,0.00146615505218506,0.284107208251953,-0.00464081764221191,0.284148891568741
0.348481993,0.071816623210907,0.279994010925293,-0.0443761348724365,0.29244403715868
0.353236524,0.124282777309418,0.22657585144043,-0.0719795227050781,0.268260837396272
0.357991003,0.133307337760925,0.133943557739258,-0.0380086898803711,0.192759911462881
0.362745535,0.0620571374893189,-0.0186786651611328,0.00264978408813477,0.0648614076418611
0.367500014,-0.0646860003471375,-0.117294311523438,0.061737060546875,0.14749135161641
0.372254545,-0.107155978679657,-0.219315528869629,0.167364597320557,0.295960492982479
0.377009024,-0.0382123589515686,-0.298791885375977,0.283613681793213,0.413731187661114
0.381763555,0.0698328018188477,-0.289969444274902,0.299460411071777,0.422652855925811
0.386518087,0.202420890331268,-0.196369171142578,0.168951511383057,0.328754743564782
0.391272566,0.321598708629608,-0.0332002639770508,0.0496001243591309,0.327090445071113
0.396027097,0.54308009147644,0.0924816131591797,0.207883358001709,0.58881603669113
0.400781576,0.792563080787659,0.129146575927734,0.151736736297607,0.817226475491178
0.405536108,0.944974958896637,0.122797012329102,-0.0075225830078125,0.95294982471994
0.410290587,0.926304936408997,0.0952281951904297,-0.0490255355834961,0.932476673978578
0.415045118,0.747971177101135,0.0231046676635742,0.0185096263885498,0.7485568206295
0.419799597,0.518029510974884,-0.0670843124389648,0.0663409233093262,0.526551039617073
0.424554128,0.321939170360565,-0.189308166503906,0.0568702220916748,0.37777855084464
0.429308608,0.204118371009827,-0.277054786682129,0.057096004486084,0.348831790316565
0.434063139,0.0337144136428833,-0.271659851074219,0.00309205055236816,0.273761387250957
0.43881767,-0.122640311717987,-0.256953239440918,0.0160531997680664,0.285172436501602
0.443572149,-0.189530432224274,-0.235404014587402,0.00536417961120606,0.302267446553358
0.44832668,-0.234344601631165,-0.226007461547852,0.0470438003540039,0.328952708061083
0.45308116,-0.195939362049103,-0.22389030456543,0.100315570831299,0.313978209163979
0.457835691,-0.202949643135071,-0.186386108398438,0.0538654327392578,0.280766493543575
0.46259017,-0.226555347442627,-0.137515068054199,-0.0652623176574707,0.272941183229693
0.467344701,-0.269149422645569,-0.0891485214233398,-0.116927146911621,0.306693378257997
0.47209918,-0.302140057086945,-0.0838556289672852,-0.13507604598999,0.341417513912645
0.476853712,-0.268714427947998,-0.0762224197387695,-0.148419618606567,0.316299990903528
0.481608243,-0.299646496772766,-0.0355052947998047,-0.237506747245789,0.384002739540081
0.486362722,-0.372771918773651,0.0237550735473633,-0.271411180496216,0.461722033093267
0.491117253,-0.487751483917236,0.0232553482055664,-0.243651151657105,0.545718063644096
0.495871733,-0.596911191940308,-0.10035514831543,-0.178406596183777,0.631033311655488
0.500626264,-0.598564267158508,-0.241663932800293,-0.0475401878356934,0.647256292201906
0.505380743,-0.614654421806335,-0.355545043945313,0.167421102523804,0.729549286950814
0.510135274,-0.602432250976563,-0.43999195098877,0.399664878845215,0.846315277738711
0.514889805,-0.531521916389465,-0.412480354309082,0.557125568389893,0.873524177826256
0.519644285,-0.366939097642899,-0.402073860168457,0.588597059249878,0.801719519886695
0.524398816,-0.156831920146942,-0.261665344238281,0.537799596786499,0.618298803052405
0.529153295,0.0273622274398804,-0.110907554626465,0.459774494171143,0.473752849758209
0.533907826,0.278427541255951,0.00989151000976563,0.418509006500244,0.50276189814059
0.538662305,0.524807989597321,0.172174453735352,0.380280017852783,0.670582105668173
0.543416837,0.69805258512497,0.299752235412598,0.219259977340698,0.790698268556309
0.548171368,0.773020148277283,0.423850059509277,0.0926334857940674,0.886447959712813
0.552925847,0.798155903816223,0.471109390258789,0.0660157203674316,0.929168972642937
0.557680378,0.823609590530396,0.477770805358887,0.0177156925201416,0.952319035737706
0.562434858,0.806506276130676,0.415757179260254,-0.127954721450806,0.916339902157582
0.567189389,0.806459069252014,0.269081115722656,-0.235050439834595,0.882059854252426
0.571943868,0.700270354747772,0.221051216125488,-0.365591764450073,0.820304545960125
0.576698399,0.484174787998199,0.299276351928711,-0.279945492744446,0.634319351009245
0.58145293,0.203863024711609,0.317646026611328,0.0107629299163818,0.377591011183947
0.58620741,-0.0148356556892395,0.281330108642578,0.0783898830413818,0.292423837044479
0.590961941,-0.148998260498047,0.231050491333008,0.00587916374206543,0.274989773888001
0.59571642,-0.261161923408508,0.195412635803223,-0.0989053249359131,0.340842942967392
0.600470951,-0.420282125473022,0.126836776733398,-0.136091709136963,0.459614606186595
0.605225483,-0.604520082473755,0.125265121459961,-0.0565643310546875,0.619947904517887
0.609979962,-0.775684237480164,0.123662948608398,0.07956862449646,0.789499668865013
0.614734493,-0.877099394798279,0.145776748657227,0.160282611846924,0.90346263036445
0.619488972,-0.900027990341187,0.115494728088379,0.224022150039673,0.934652523305962
0.624243503,-0.638939142227173,0.00718307495117188,0.277993440628052,0.696832244566776
0.628997983,-0.463519185781479,0.00413036346435547,0.270172834396362,0.53652628634172
0.633752514,-0.363318145275116,0.0461235046386719,0.317342281341553,0.484596301980695
0.638507045,-0.192992568016052,0.0307350158691406,0.347997188568115,0.399115040760454
0.643261524,0.0018659234046936,-0.0178518295288086,0.345752477645874,0.346218060311617
0.648016055,0.207033216953278,-0.0661439895629883,0.396225452423096,0.451920777819762
0.652770535,0.384604752063751,-0.152094841003418,0.491756677627564,0.642556056668345
0.657525066,0.513667583465576,-0.197126388549805,0.575088262557983,0.79588925680525
0.662279597,0.597134470939636,-0.225325584411621,0.667722225189209,0.923685100771051
0.667034076,0.649700522422791,-0.239209175109863,0.738728046417236,1.0124479862475
0.671788608,0.678741276264191,-0.26739501953125,0.759925603866577,1.05341195170116
0.676543087,0.686713874340057,-0.255171775817871,0.73641848564148,1.03874961678918
0.681297618,0.687974333763123,-0.228945732116699,0.64236855506897,0.968690968633785
0.686052097,0.699247598648071,-0.198322296142578,0.575618505477905,0.927154572447861
0.690806628,0.808273851871491,-0.215513229370117,0.533441543579102,0.992125219953997
0.69556116,0.919420421123505,-0.22794246673584,0.532306432723999,1.0865734292904
0.700315639,1.03737902641296,-0.254641532897949,0.486525535583496,1.17375664065978
0.70507017,1.15020632743835,-0.219555854797363,0.417779207229614,1.24326941370261
0.709824649,1.2485454082489,-0.187241554260254,0.345113515853882,1.3088270989425
0.71457918,1.33258807659149,-0.152919769287109,0.266103506088257,1.36747450201644
0.719333712,1.35975885391235,-0.0999898910522461,0.228224039077759,1.38239948318807
0.724088191,1.36381685733795,-0.0309686660766602,0.148003101348877,1.37217360295504
0.728842722,1.26193368434906,0.054020881652832,0.0708075761795044,1.26507256400325
0.733597201,1.16155755519867,0.0742111206054688,-0.00108194351196289,1.16392629279624
0.738351733,1.07217359542847,0.065739631652832,0.00343406200408936,1.07419258547325
0.743106264,1.05763483047485,0.000360488891601563,0.0577268600463867,1.05920911767065
0.747860743,0.986708045005798,-0.102468490600586,0.121097087860107,0.999378337934801
0.752615274,0.893123865127564,-0.128596305847168,0.191320180892944,0.922393983043496
0.757369753,0.74365359544754,-0.142719268798828,0.201976537704468,0.783698909972197
0.762124285,0.607604324817658,-0.125953674316406,0.179646611213684,0.646003288328694
0.766878764,0.494242787361145,-0.0785493850708008,0.164971828460693,0.526936089994963
0.771633295,0.474582016468048,-0.0695333480834961,0.162456631660461,0.506413994693119
0.776387826,0.486298799514771,-0.0273981094360352,0.162407279014587,0.513432861323755
0.781142305,0.514864146709442,0.0143756866455078,0.155271887779236,0.537960137062124
0.785896837,0.517453491687775,0.0249471664428711,0.131609439849854,0.534510544171947
0.790651368,0.487197697162628,0.0543937683105469,0.065500020980835,0.49458116715063
0.795405847,0.37684839963913,0.0337619781494141,-0.0261127948760986,0.379257782432181
0.800160378,0.265376627445221,-0.00567817687988281,-0.0837277173995972,0.278329529061912
0.804914858,0.143161654472351,-0.0352697372436523,-0.105324864387512,0.181197518566742
0.809669389,0.0458139181137085,-0.0384817123413086,-0.110178709030151,0.125375855734665
0.81442392,-0.029289722442627,-0.0914669036865234,-0.136315107345581,0.166750984409098
0.819178399,-0.0632739067077637,-0.117853164672852,-0.160040855407715,0.208580994084078
0.82393293,-0.1205073595047,-0.108373641967773,-0.162385106086731,0.229424917232094
0.82868741,-0.148618996143341,-0.122674942016602,-0.174192905426025,0.259768966033649
0.833441941,-0.18350738286972,-0.153414726257324,-0.193120241165161,0.307419038688227
0.83819642,-0.246563196182251,-0.138768196105957,-0.24515962600708,0.374370490538504
0.842950951,-0.323389619588852,-0.147903442382813,-0.285026073455811,0.455736916297271
0.847705483,-0.342721372842789,-0.0975818634033203,-0.279558300971985,0.452916110456289
0.852459962,-0.357302904129028,-0.0879392623901367,-0.27901017665863,0.461784969274487
0.857214493,-0.33387365937233,-0.0712032318115234,-0.226327896118164,0.409592281670871
0.861968972,-0.353505700826645,-0.0426931381225586,-0.207293629646301,0.412018972198644
0.866723503,-0.358924508094788,-0.00724315643310547,-0.264378905296326,0.445842428882541
0.871478035,-0.383465707302094,0.0611953735351563,-0.264138221740723,0.469637969720457
0.876232514,-0.40558797121048,0.0816860198974609,-0.29490327835083,0.508076915259283
0.880987045,-0.449150800704956,0.113949775695801,-0.292353510856628,0.547897406879448
0.885741524,-0.50442898273468,0.134167671203613,-0.3374924659729,0.621571176300361
0.890496055,-0.568982124328613,0.201756477355957,-0.394341707229614,0.721076775400063
0.895250587,-0.55021858215332,0.230914115905762,-0.396418690681458,0.716386484652629
0.900005066,-0.459672063589096,0.19642448425293,-0.28328275680542,0.574569494805951
0.904759597,-0.365123093128204,0.0813102722167969,-0.178191304206848,0.414340891535478
0.909514076,-0.271349042654038,0.00731182098388672,-0.135527968406677,0.303400059155901
0.914268608,-0.228268474340439,-0.00437831878662109,-0.104997873306274,0.251297074101449
0.919023139,-0.147502571344376,0.0101814270019531,-0.124459028244019,0.19326334292991
0.923777618,-0.100548297166824,0.0318231582641602,-0.138996243476868,0.17447816243225
0.928532149,-0.058679610490799,0.0819149017333984,-0.117596387863159,0.154862062015869
0.93328668,0.0234985649585724,0.122248649597168,-0.0844259262084961,0.150414932435599
0.93804116,0.081484317779541,0.14335823059082,-0.0466746091842651,0.171376181147299
0.942795691,0.0867311358451843,0.121570587158203,0.0192832946777344,0.150577365631805
0.94755017,0.0632819831371307,0.0713605880737305,0.0349377393722534,0.101575531268314
0.952304701,0.0684099793434143,0.0000133514404296875,0.0648150444030762,0.0942386090357878
0.957059233,0.0688153803348541,-0.0376338958740234,0.080335259437561,0.112274754946015
0.961813712,0.0740521252155304,-0.0512914657592773,0.0840637683868408,0.12321221069386
0.966568243,0.093724399805069,-0.0791721343994141,0.0403556823730469,0.129155220893209
0.971322722,0.111055731773376,-0.0950107574462891,-0.0196670293807983,0.147469358291487
0.976077253,0.140373677015305,-0.0797977447509766,-0.00564277172088623,0.161568221314815
0.980831785,0.160046696662903,-0.0122642517089844,-0.0154949426651001,0.161262054528904
0.985586264,0.155884921550751,0.0430526733398438,-0.0943480730056763,0.18723034029899
0.990340795,0.132861346006393,0.100509643554688,-0.175267696380615,0.241812098755808
0.995095274,0.0908949077129364,0.122026443481445,-0.294071614742279,0.331104895394201
0.999849805,0.0657923817634583,0.133987426757813,-0.307886600494385,0.342162865885937
1.004604337,0.055079460144043,0.0840520858764648,-0.229058623313904,0.250132670765745
1.009358816,0.0920753926038742,0.0296344757080078,-0.191185832023621,0.214261761497963
1.014113347,0.155244842171669,-0.000704765319824219,-0.153365969657898,0.21822598003943
1.018867826,0.175407469272614,-0.0642290115356445,-0.122740387916565,0.223513643935617
1.023622358,0.112284407019615,-0.0845918655395508,-0.175422549247742,0.224803564384074
1.028376889,0.116296738386154,-0.0715188980102539,-0.17768406867981,0.224079254716875
1.033131368,0.148895964026451,-0.108494758605957,-0.103690385818481,0.211406756891819
1.037885899,0.214796483516693,-0.154806137084961,-0.0776193141937256,0.275911629595798
1.04264043,0.254302740097046,-0.143726348876953,-0.0540541410446167,0.297067327632031
1.04739491,0.320080578327179,-0.123154640197754,-0.0496484041213989,0.346530815449797
1.052149441,0.37861293554306,-0.0740804672241211,-0.0000126361846923828,0.385792263717601
1.05690392,0.387246042490006,-0.0275945663452148,0.0517786741256714,0.391665659217353
1.061658451,0.34379106760025,-0.0527677536010742,0.0463496446609497,0.350891754736443
1.066412983,0.274599134922028,-0.0778074264526367,0.0338596105575562,0.28741112319849
1.071167462,0.222608089447021,-0.117003440856934,0.00719642639160156,0.251586874086119
1.075921993,0.242451012134552,-0.175041198730469,0.0282367467880249,0.30036515844425
1.080676524,0.207581862807274,-0.192301750183105,0.0491925477981567,0.287210897510692
1.085431003,0.0896950885653496,-0.180877685546875,-0.0180584192276001,0.202701880964484
1.090185535,-0.0275674909353256,-0.121846199035645,-0.101610481739044,0.16103152727073
1.094940014,-0.103773795068264,-0.0654277801513672,-0.113319218158722,0.167006108159282
1.099694545,-0.127269417047501,-0.033055305480957,-0.127285003662109,0.183007185359792
1.104449076,-0.07686947286129,-0.0269994735717773,-0.129204869270325,0.152747457177812
1.109203555,0.0686018168926239,-0.00903224945068359,-0.16200864315033,0.17616637382463
1.113958087,0.161078855395317,-0.0149374008178711,-0.192214250564575,0.251228664206059
1.118712566,0.179426655173302,-0.0303068161010742,-0.274739444255829,0.329536325643873
1.123467097,0.135873273015022,-0.0550985336303711,-0.328364491462708,0.359611782317535
1.128221628,0.123463504016399,-0.0892658233642578,-0.284186244010925,0.32244913603535
1.132976108,0.0730896890163422,-0.118489265441895,-0.22112363576889,0.26129958086671
1.137730639,-0.0437652990221977,-0.0975151062011719,-0.251339375972748,0.273122828138364
1.142485118,-0.134155347943306,-0.0980215072631836,-0.272109627723694,0.318825222916668
1.147239649,-0.138656973838806,-0.0603427886962891,-0.309855461120605,0.344786042826625
1.15199418,-0.0384753197431564,-0.0489683151245117,-0.28106677532196,0.287883272013775
1.15674866,0.0256201326847076,0.0148200988769531,-0.262092173099518,0.26375809699331
1.161503191,0.00139437615871429,0.0855417251586914,-0.28868043422699,0.301090890153589
1.166257722,0.0439513474702835,0.120268821716309,-0.303337752819061,0.329256894698958
1.171012201,0.0719096213579178,0.1143798828125,-0.215512752532959,0.254360959544449
1.175766733,0.118682131171227,0.089482307434082,-0.15185010433197,0.21248761325946
1.180521212,0.112272918224335,0.0217256546020508,-0.142508804798126,0.182718285016815
1.185275743,0.0584146678447723,-0.0525732040405273,-0.0879684686660767,0.117960445412674
1.190030274,-0.00674241781234741,-0.109617233276367,-0.0338006615638733,0.114908149194377
1.194784753,-0.154259026050568,-0.154301643371582,0.00349408388137817,0.218213319683769
1.199539285,-0.279070138931274,-0.167743682861328,0.0453484058380127,0.328746959674233
1.204293816,-0.381329238414764,-0.135954856872559,0.0702484250068665,0.410889951681916
1.209048295,-0.437618672847748,-0.0806741714477539,0.109289348125458,0.458216746068379
1.213802826,-0.443599104881287,-0.0590381622314453,0.190755546092987,0.486470295923995
1.218557305,-0.430674880743027,-0.044672966003418,0.141129851341248,0.455405491550295
1.223311837,-0.427659749984741,-0.0422630310058594,0.0135751962661743,0.429957336837597
1.228066368,-0.330210089683533,-0.00899791717529297,-0.113065183162689,0.349146676177667
1.232820847,-0.212405979633331,-0.0139312744140625,-0.165293633937836,0.269503925780628
1.237575378,-0.0767025053501129,0.00257492065429688,-0.193599700927734,0.208256449462359
1.24232991,-0.010947048664093,0.0403375625610352,-0.28821212053299,0.291227030424619
1.247084389,0.0565390884876251,0.0422267913818359,-0.363143861293793,0.369936797889561
1.25183892,0.0878501832485199,0.0820989608764648,-0.380585551261902,0.39912811965974
1.256593399,0.0999091863632202,0.100315093994141,-0.442971110343933,0.465046630137399
1.261347878,0.00271019339561462,0.142141342163086,-0.41948813199997,0.44292414608936
1.266102462,-0.122289091348648,0.119590759277344,-0.339440226554871,0.380100301198291
1.270856941,-0.2653888463974,0.0948867797851563,-0.253082454204559,0.378794758934627
1.27561142,-0.483448922634125,0.129732131958008,-0.283851504325867,0.575434586522676
1.280365951,-0.730999052524567,0.195154190063477,-0.317002236843109,0.820326270976787
1.285120483,-0.91774708032608,0.298013687133789,-0.316980421543121,1.01565173598423
1.289875014,-0.935358345508575,0.343073844909668,-0.293567359447479,1.03864175349666
1.294629493,-0.865761935710907,0.368779182434082,-0.254043787717819,0.974720503939803
1.299384024,-0.825839638710022,0.349198341369629,-0.257933676242828,0.932995376097942
1.304138555,-0.815054416656494,0.27997875213623,-0.262168228626251,0.900796305420957
1.308893035,-0.844954073429108,0.230323791503906,-0.214246392250061,0.901608535745611
1.313647566,-0.865595698356628,0.145475387573242,-0.183175414800644,0.896644987712792
1.318402045,-0.855754196643829,0.0992755889892578,-0.206828713417053,0.88597347834822
1.323156576,-0.820374250411987,0.00362300872802734,-0.166237682104111,0.837055556031152
1.327911108,-0.77616810798645,-0.0651340484619141,-0.130925536155701,0.789823317041199
1.332665587,-0.73489773273468,-0.088226318359375,-0.112709552049637,0.748706887876059
1.337420118,-0.691899240016937,-0.0328350067138672,-0.0638121068477631,0.695611012694786
1.342174649,-0.644761204719544,0.000733375549316406,0.00132346153259277,0.644762980095416
1.346929128,-0.617296040058136,0.0482473373413086,-0.00521832704544067,0.619200644031589
1.35168366,-0.52878338098526,0.0146770477294922,-0.0330720543861389,0.530019849173195
1.356438139,-0.460456490516663,-0.0921840667724609,-0.0323457717895508,0.470706204312512
1.36119267,-0.407227993011475,-0.179176330566406,-0.0460962057113647,0.447284759307066
1.365947201,-0.333263993263245,-0.236968040466309,-0.0860580205917358,0.417881232309341
1.37070168,-0.252904653549194,-0.220717430114746,-0.0926749408245087,0.348232095591607
1.375456212,-0.161510705947876,-0.142910957336426,-0.0472343862056732,0.220772138420639
1.380210743,-0.120920121669769,-0.0491485595703125,-0.0332121253013611,0.134685938388169
1.384965222,-0.0312320590019226,0.0295705795288086,-0.0809663534164429,0.0916810289466992
1.389719753,0.012124240398407,0.0767555236816406,-0.289632886648178,0.299876002122607
1.394474233,0.00242984294891357,0.128261566162109,-0.399335116147995,0.419434701091894
1.399228764,-0.0740416646003723,0.179319381713867,-0.403980076313019,0.448148982831502
1.403983295,-0.152617752552032,0.227560997009277,-0.377880096435547,0.466764986943138
1.408737774,-0.18341326713562,0.194714546203613,-0.290421575307846,0.394840312618826
1.413492305,-0.178660690784454,0.114673614501953,-0.222797900438309,0.307747599071446
1.418246837,-0.283124685287476,0.0234403610229492,-0.162927687168121,0.327497281194778
1.423001316,-0.455619037151337,-0.07177734375,-0.0942045599222183,0.470760228992059
1.427755847,-0.574506223201752,-0.128235816955566,-0.0379803478717804,0.589868063275394
1.432510326,-0.602444112300873,-0.167623519897461,0.0579800307750702,0.628011334959393
1.437264858,-0.51653003692627,-0.149753570556641,0.129254430532455,0.553114923640454
1.442019389,-0.419860124588013,-0.108334541320801,0.135735809803009,0.454360107321416
1.446773868,-0.286252439022064,-0.102861404418945,0.125415414571762,0.32901360697899
1.451528399,-0.161077558994293,-0.102194786071777,0.0724387764930725,0.20405178424025
1.45628293,-0.0417634844779968,-0.111026763916016,0.022227555513382,0.120686350369489
1.46103741,0.0574570298194885,-0.103183746337891,-0.0323252826929092,0.122446395149781
1.465791941,0.162915468215942,-0.0550699234008789,0.0700660943984985,0.185697075452624
1.47054642,0.269755721092224,-0.0761737823486328,0.17646861076355,0.331227663041751
1.475300951,0.323393940925598,-0.0805063247680664,0.146972447633743,0.3642331804195
1.480055483,0.324280798435211,-0.108540534973145,0.132210344076157,0.366631503074641
1.484809962,0.287383854389191,-0.107855796813965,0.134341165423393,0.335067010308801
1.489564493,0.274596154689789,-0.0265016555786133,0.098667323589325,0.292985710680754
1.494318972,0.216908037662506,0.12061882019043,0.0940771400928497,0.265421372302194
1.499073503,0.197450041770935,0.23090934753418,0.160647064447403,0.34367590123483
1.503828035,0.237138509750366,0.276198387145996,0.110331505537033,0.380385676626687
1.508582514,0.238026559352875,0.245143890380859,-0.0272098332643509,0.342771855575548
1.513337045,0.174451589584351,0.292616844177246,-0.18493065237999,0.387630391990161
1.518091576,0.457705616950989,0.237667083740234,-0.229781180620193,0.564605583969272
1.522846055,0.470898032188416,0.183213233947754,-0.165133371949196,0.531583555373779
1.527600587,0.2780841588974,0.200438499450684,-0.077192023396492,0.35137586708219
1.532355118,0.158059418201447,0.134481430053711,-0.00656552612781525,0.207632224967142
1.537109597,0.128960430622101,0.000250816345214844,0.0778083652257919,0.150615395209743
1.541864128,0.119074285030365,-0.123370170593262,0.185397312045097,0.252529300599456
1.546618608,0.107283532619476,-0.222204208374023,0.325418382883072,0.408389018594617
1.551373139,0.0960308313369751,-0.241883277893066,0.440697520971298,0.511804401780419
1.55612767,0.127901911735535,-0.209173202514648,0.493289589881897,0.550860188397826
1.560882149,0.218917071819305,-0.183844566345215,0.490945160388947,0.568111485025543
1.56563668,0.335317134857178,-0.153976440429688,0.381903022527695,0.531033185170205
1.570391212,0.538584291934967,-0.171808242797852,0.266782760620117,0.625111312628772
1.575145691,0.673951864242554,-0.194218635559082,0.167081341147423,0.72100497104671
1.579900222,0.773061871528626,-0.221149444580078,0.0825736671686173,0.808300776047563
1.584654753,0.736742734909058,-0.259668350219727,0.0558174550533295,0.783155857946388
1.589409233,0.677467286586762,-0.259866714477539,0.0910885035991669,0.731293203288883
1.594163764,0.635697603225708,-0.288500785827637,0.145127713680267,0.713026086092322
1.598918243,0.596879482269287,-0.323996543884277,0.137275248765945,0.692880488054586
1.603672774,0.556358277797699,-0.325949668884277,0.044275775551796,0.646326592537012
1.608427305,0.461892902851105,-0.218722343444824,0.00439880788326263,0.511081076481031
1.613181785,0.411096811294556,-0.138467788696289,0.0858420059084892,0.44220217858055
1.617936316,0.327450454235077,-0.0920982360839844,0.0932455882430077,0.352704727492167
1.622690795,0.147164583206177,-0.055607795715332,-0.0366760864853859,0.16153877805174
1.627445326,-0.0126388072967529,-0.0407676696777344,-0.0727943032979965,0.084384553879712
1.632199858,-0.133035838603973,-0.0260343551635742,-0.00188231468200684,0.135572361159669
1.636954337,-0.275874555110931,-0.0659646987915039,0.0921005755662918,0.298229152941074
1.641708868,-0.372333109378815,-0.0865631103515625,0.170987278223038,0.418762182781057
1.646463399,-0.311397314071655,-0.111728668212891,0.14479124546051,0.361131675810463
1.651217878,-0.191712498664856,-0.120070457458496,0.0595022849738598,0.233904080374254
1.655972358,-0.0137105584144592,-0.154434204101563,0.0648874491453171,0.168072257868767
1.660726941,0.120098769664764,-0.171894073486328,0.0843322649598122,0.226015968214561
1.66548142,0.188729226589203,-0.155985832214355,0.0514691881835461,0.250198677360287
1.670235951,0.221194505691528,-0.168675422668457,-0.052123885601759,0.283011142909122
1.674990483,0.189208567142487,-0.100590705871582,-0.145310655236244,0.258908397919115
1.679744962,0.109915375709534,-0.00697517395019531,-0.190262958407402,0.219840933883888
1.684499493,-0.0256695151329041,0.0573978424072266,-0.187429308891296,0.197694669001549
1.689253972,-0.167253375053406,0.107007026672363,-0.220301136374474,0.296575093208954
1.694008503,-0.326650083065033,0.111130714416504,-0.224483087658882,0.411634509119414
1.698763035,-0.389935612678528,0.119965553283691,-0.14106459915638,0.43167202497358
1.703517514,-0.414849162101746,0.0812702178955078,-0.051495335996151,0.425859654396446
1.708272045,-0.425489783287048,0.0428886413574219,-0.0199685245752335,0.428111823257495
1.713026524,-0.355483889579773,-0.0165300369262695,0.00405113399028778,0.355891064172951
1.717781055,-0.20793217420578,-0.0896968841552734,0.00887978821992874,0.226627824275701
1.722535587,-0.00471848249435425,-0.117172241210938,0.0373165309429169,0.123061454846988
1.727290118,0.168506741523743,-0.153890609741211,0.0250495597720146,0.229574219263058
1.732044597,0.295326113700867,-0.128599166870117,-0.00134663283824921,0.322113446744073
1.736799128,0.430694997310638,-0.127229690551758,-0.0346176698803902,0.450426417891152
1.741553608,0.501045048236847,-0.130597114562988,-0.06045201420784,0.521302400451626
1.746308139,0.499797821044922,-0.0840921401977539,-0.0291289836168289,0.507659184542977
1.75106267,0.475002110004425,-0.042698860168457,-0.0572087019681931,0.480336374584756
1.755817149,0.341379642486572,0.0553092956542969,-0.0992154330015183,0.359781712480934
1.76057168,0.206605851650238,0.138278007507324,-0.0745329856872559,0.259541810219033
1.76532616,0.0586602687835693,0.187337875366211,-0.00983412563800812,0.196553343160453
1.770080691,-0.0455114841461182,0.162426948547363,0.0280862748622894,0.171004817590705
1.774835222,-0.141800224781036,0.132972717285156,0.0394796282052994,0.198362517460782
1.779589701,-0.220777094364166,0.125114440917969,0.0221794545650482,0.254731381904356
1.784344233,-0.277785181999207,0.0983371734619141,0.0262024104595184,0.295840114481961
1.789098764,-0.303631186485291,0.135835647583008,0.0277051627635956,0.333782558868072
1.793853243,-0.388622641563416,0.149292945861816,0.02671779692173,0.417168769075751
1.798607774,-0.423183798789978,0.127044677734375,0.00897754728794098,0.441933789219896
1.803362305,-0.41745263338089,0.10020923614502,-0.0395556539297104,0.431130191338086
1.808116785,-0.40249890089035,0.0688362121582031,-0.125785857439041,0.427277276781605
1.812871316,-0.387779414653778,0.0258512496948242,-0.14747466146946,0.415680090112027
1.817625795,-0.406400859355927,0.0235576629638672,-0.133668854832649,0.428467017075792
1.822380326,-0.455825328826904,0.00703811645507813,-0.094045877456665,0.465479207430348
1.827134858,-0.407722175121307,-0.0829076766967773,-0.0572660863399506,0.419988642210241
1.831889337,-0.327076077461243,-0.183991432189941,-0.0920661389827728,0.386403651010098
1.836643868,-0.263814032077789,-0.232046127319336,-0.176605075597763,0.393233520254739
1.841398399,-0.186895608901978,-0.234626770019531,-0.222603440284729,0.373539799035171
1.846152878,-0.0821477770805359,-0.239559173583984,-0.216239601373672,0.333011141149601
1.85090741,-0.0209786891937256,-0.213603019714355,-0.224166184663773,0.310349534844328
1.855661941,0.0443155169487,-0.180756568908691,-0.281972438097,0.337853900513875
1.86041642,0.101889431476593,-0.155306816101074,-0.270594775676727,0.328212120430697
1.865170951,0.1400505900383,-0.163280487060547,-0.276003748178482,0.349932499538663
1.86992543,0.151778697967529,-0.10476016998291,-0.264992356300354,0.322850453413311
1.874679962,0.14904648065567,-0.0348796844482422,-0.202060878276825,0.253495649495316
1.879434493,0.141354203224182,0.00829887390136719,-0.151599705219269,0.20744240815162
1.884188972,0.116932928562164,0.00365066528320313,-0.122871577739716,0.169658662482589
1.888943503,0.00253820419311523,0.0227699279785156,-0.125123918056488,0.127204193997209
1.893698035,-0.0728954076766968,0.020380973815918,-0.0182986259460449,0.0778714598909654
1.898452514,-0.107365667819977,0.0607147216796875,0.101701781153679,0.159865306883333
1.903207045,-0.124987363815308,0.0651149749755859,0.144638374447823,0.201945686862779
1.907961576,-0.123533844947815,-0.00408077239990234,0.163366869091988,0.204856040838168
1.912716055,-0.0889341831207275,-0.0394887924194336,0.172453805804253,0.198012547053128
1.917470587,0.0022616982460022,-0.0627403259277344,0.117465600371361,0.133190206273129
1.922225066,0.0475626587867737,-0.052586555480957,0.0842839181423187,0.110142322408963
1.926979597,0.116153717041016,-0.0377750396728516,-0.00555962324142456,0.122268348378951
1.931734076,0.134394407272339,-0.0420665740966797,-0.0425441265106201,0.147110353350355
1.936488608,0.0932013392448425,-0.0368251800537109,-0.0435738861560822,0.109276104788575
1.941243139,-0.00935405492782593,-0.0434894561767578,-0.137086719274521,0.144123557212533
1.94599767,-0.0399393439292908,-0.0263795852661133,-0.175347656011581,0.181763126571563
1.950752149,-0.0799269676208496,-0.00943088531494141,-0.189687490463257,0.206054861115034
1.95550668,-0.121950447559357,-0.0353326797485352,-0.161324173212051,0.205294419750494
1.96026116,-0.14463210105896,-0.0705175399780273,-0.0812523066997528,0.180258440704763
1.965015691,-0.126833736896515,-0.126771926879883,-0.0731718838214874,0.193680259298561
1.969770222,-0.0475932955741882,-0.165962219238281,-0.0534458458423615,0.180734718402173
1.974524753,0.0120213627815247,-0.192962646484375,-0.0576474666595459,0.201748175985912
1.979279233,0.0379859805107117,-0.162785530090332,-0.0427923500537872,0.172549264690628
1.984033764,0.0376896858215332,-0.102005958557129,-0.0682775378227234,0.128403855742801
1.988788243,0.0681222677230835,-0.0702114105224609,-0.0626391172409058,0.116163438895416
1.993542774,0.121855139732361,-0.0481910705566406,-0.0666466951370239,0.14701304817354
1.998297305,0.146661758422852,-0.0880441665649414,-0.0208365917205811,0.172324142836482
2.003051785,0.100181877613068,-0.0492620468139648,-0.0348068773746491,0.11693877274435
2.007806316,0.0374666452407837,-0.00131416320800781,-0.00835156440734863,0.0384086599425978
2.012560795,0.00610619783401489,0.043858528137207,-0.00350135564804077,0.0444197662502222
2.017315326,-0.0180549025535584,0.0649118423461914,-0.0248265564441681,0.0718044893295033
2.022069858,-0.129927933216095,0.0620479583740234,-0.0294530391693115,0.146964956654638
2.026824337,-0.138909757137299,0.0402154922485352,0.0488469302654266,0.152640849843974
2.031578868,-0.171595275402069,-0.00754451751708984,0.0955263674259186,0.196537897512081
2.036333399,-0.156723439693451,-0.0122137069702148,0.0611419975757599,0.168670551830648
2.041087878,-0.106447875499725,-0.0334568023681641,0.0294271111488342,0.115396978702535
2.04584241,-0.0495376586914063,-0.0497875213623047,0.0358409285545349,0.078850168494934
2.050596941,-0.00734275579452515,-0.0280227661132813,0.0397821366786957,0.0492118876087894
2.05535142,0.0582217574119568,-0.00881481170654297,0.00805431604385376,0.0594335422845789
2.060105951,0.11368989944458,-0.00638198852539063,-0.0163430571556091,0.115035727191375
2.06486043,0.118859946727753,-0.00397109985351563,-0.0287104249000549,0.12234273606599
2.069614962,0.161941111087799,0.0245180130004883,-0.0457050204277039,0.170044127549703
2.074369493,0.176121771335602,0.0148019790649414,-0.0744526982307434,0.191784204762715
2.079123972,0.145093381404877,0.0170278549194336,-0.0555449426174164,0.156292283306088
2.083878503,0.116685390472412,0.0239810943603516,-0.0438929200172424,0.126953383822801
2.088633035,0.0102137923240662,0.0213871002197266,-0.0513146221637726,0.0565236238864647
2.093387514,-0.00057142972946167,0.0520153045654297,-0.030331939458847,0.0602158201165216
2.098142045,0.0194841027259827,0.0847482681274414,-0.0262303054332733,0.0908291150059283
2.102896576,0.0702342987060547,0.04840087890625,-0.0222554206848145,0.0881521726532413
2.107651055,0.0803554654121399,0.0693092346191406,-0.0135991275310516,0.106984611485477
2.112405587,0.08797287940979,0.082921028137207,-0.000290155410766602,0.120893377027624
2.117160118,0.121522486209869,0.108270645141602,0.0531656444072723,0.17122159034201
2.121914597,0.131073772907257,0.083582878112793,0.0515899062156677,0.163792398728093
2.126669128,0.083723247051239,0.0543661117553711,0.0737384557723999,0.124107276434134
2.131423608,0.0676115155220032,0.0372581481933594,0.136037200689316,0.156414854183884
2.136178139,0.0990920066833496,-0.0129251480102539,0.176452904939652,0.202785386310902
2.14093267,0.125632226467133,-0.00811386108398438,0.180922001600266,0.220413388277177
2.145687149,0.159187912940979,-0.0128240585327148,0.135518372058868,0.209452804395742
2.15044168,0.145000696182251,-0.00325298309326172,0.057409405708313,0.155985972626144
2.155196212,0.138093233108521,0.022852897644043,0.0321739315986633,0.143621578586258
2.159950691,0.117115676403046,0.0392570495605469,0.0189648270606995,0.124967444820579
2.164705222,0.0750131011009216,0.0578947067260742,0.03179931640625,0.099949782028677
2.169459753,0.0783414244651794,0.0170564651489258,0.044413149356842,0.0916560397704543
2.174214233,0.0626713633537293,-0.0305681228637695,0.0685949325561523,0.0978129576917739
2.178968764,0.0732415318489075,-0.0849161148071289,0.0782628357410431,0.136748455200567
2.183723243,0.074235737323761,-0.126947402954102,0.026156485080719,0.149367832964703
2.188477774,0.0444287657737732,-0.0737190246582031,-0.0468597710132599,0.0980012651150622
2.193232305,-0.00643742084503174,-0.011439323425293,-0.131168216466904,0.13182336484354
2.197986785,-0.0807357430458069,0.0597953796386719,-0.112834930419922,0.151081001963053
2.202741316,-0.109448611736298,0.0687360763549805,-0.104201674461365,0.166016974325618
2.207495847,-0.116728246212006,0.0301303863525391,-0.117127180099487,0.168083610038402
2.212250326,-0.102639734745026,-0.0342626571655273,-0.0968610644340515,0.145227100184054
2.217004858,-0.0839126706123352,-0.0957517623901367,-0.0650335848331451,0.142965392477905
2.221759337,-0.0534701943397522,-0.106903076171875,-0.0334860682487488,0.124131567880618
2.226513868,-0.00909435749053955,-0.0942401885986328,0.0096471905708313,0.0951682130292544
2.231268399,0.0205814838409424,-0.050847053527832,-0.0139902532100677,0.0566104894382569
2.236022878,0.0191143751144409,-0.00781631469726563,-0.0373836755752564,0.0427082346975178
2.24077741,0.0176540613174438,0.0206193923950195,-0.0344734787940979,0.0438776248662912
2.245531941,0.0329791307449341,-0.0223455429077148,0.0443467199802399,0.0596118941616334
2.25028642,0.0909408926963806,-0.0839309692382813,0.127198547124863,0.177465838832063
2.255040951,0.129511594772339,-0.149745941162109,0.159448832273483,0.254206668261039
2.259795483,0.151155114173889,-0.155696868896484,0.151090741157532,0.264419733735254
2.264549962,0.148992002010345,-0.0951528549194336,0.102548122406006,0.204374166350267
2.269304493,0.142142355442047,-0.0351047515869141,0.0355142652988434,0.150658739654588
2.274059024,0.142402768135071,0.00308513641357422,0.0402325093746185,0.148009193125967
2.278813503,0.109384715557098,0.0290889739990234,-0.012027382850647,0.113823733658931
2.283568035,0.0220603346824646,0.0880928039550781,-0.0448517203330994,0.101285128680418
2.288322566,-0.0621233582496643,0.0991535186767578,-0.0489593148231506,0.126837480320884
2.293077045,-0.112453460693359,0.126724243164063,0.00624078512191773,0.169539853799498
2.297831576,-0.0723661780357361,0.113713264465332,0.0419287979602814,0.141158047369806
2.302586055,-0.00891906023025513,0.0865640640258789,0.0605547726154327,0.106017768805866
2.307340587,0.0303511619567871,0.0359182357788086,0.128756463527679,0.137074941523766
2.312095118,0.083656907081604,0.00705718994140625,0.153658658266068,0.175097873466405
2.316849597,0.131835162639618,-0.0144405364990234,0.135636389255524,0.189700472568916
2.321604128,0.215201556682587,-0.000166893005371094,0.167646557092667,0.272794988877927
2.32635866,0.267085671424866,-0.0215969085693359,0.151937216520309,0.308035874703196
2.331113139,0.328019976615906,-0.0523357391357422,0.136429667472839,0.359094957938333
2.335867566,0.324593782424927,-0.0804224014282227,0.114022552967072,0.353312933283699
2.340622201,0.307112097740173,-0.0726737976074219,0.108442932367325,0.333705245714655
2.34537668,0.22817999124527,-0.064976692199707,0.0911398530006409,0.254154582368458
2.350131212,0.147514581680298,-0.0478458404541016,0.0623198449611664,0.167133298097825
2.354885691,0.0414118766784668,-0.00475406646728516,0.0314421653747559,0.0522125889174383
2.359640222,-0.0211045145988464,0.0640764236450195,0.0103213489055634,0.0682474823478443
2.364394753,-0.0831593871116638,0.122833251953125,0.00350335240364075,0.148377103787045
2.369149233,-0.147234857082367,0.178709983825684,-0.0317953526973724,0.233722711588308
2.373903764,-0.120721757411957,0.177167892456055,-0.0478891134262085,0.219671509337692
2.378658295,-0.120639860630035,0.161393165588379,-0.0472448170185089,0.206963288064779
2.383412774,-0.191792190074921,0.122015953063965,-0.0324314534664154,0.229616933499658
2.388167305,-0.203130781650543,0.101936340332031,0.0201320350170136,0.228163166984013
2.392921837,-0.176502525806427,0.110485076904297,0.0769616067409515,0.221998159331887
2.397676316,-0.0813146233558655,0.0881156921386719,0.0905551314353943,0.15025536596696
2.402430847,-0.00830680131912231,0.0564346313476563,0.0754656791687012,0.0945988334806227
2.407185326,0.0855730772018433,-0.010563850402832,0.10793200135231,0.138143633197629
2.411939858,0.197719097137451,-0.0651321411132813,0.140166431665421,0.250961482591784
2.416694389,0.282896101474762,-0.0860214233398438,0.143704056739807,0.328756361803858
2.421448868,0.279802739620209,-0.106718063354492,0.133033484220505,0.327683118376512
2.426203399,0.279213488101959,-0.0963840484619141,0.096423476934433,0.310721006113357
2.43095793,0.200370609760284,-0.0861291885375977,0.117150515317917,0.247569912576441
2.43571241,0.164930641651154,-0.0830698013305664,0.102203458547592,0.211064576344896
2.440466941,0.0893840789794922,-0.0800399780273438,0.0803377330303192,0.144395508953986
2.445221472,0.00509262084960938,-0.0746517181396484,0.0871213972568512,0.114843161173426
2.449975951,-0.0690031051635742,-0.0171127319335938,0.0249807238578796,0.0753545664237408
2.454730483,-0.130628645420074,0.0423135757446289,-0.00114822387695313,0.137315695077626
2.459485014,-0.125376462936401,0.0608978271484375,-0.0319527089595795,0.142999225241605
2.464239493,-0.113287687301636,0.0104990005493164,-0.0459309816360474,0.122694678697728
2.468994024,-0.0681962966918945,-0.0110158920288086,-0.0503021776676178,0.0854540451809267
2.473748503,-0.0496417880058289,-0.037104606628418,-0.0594300925731659,0.0858661449741419
2.478503035,-0.0549193620681763,-0.0273818969726563,-0.0684686303138733,0.0919448636349766
2.483257566,-0.0530996322631836,-0.0201177597045898,0.0317229330539703,0.0650433677138848
2.488012045,-0.025250256061554,-0.0461282730102539,0.0386556088924408,0.0652659873205631
2.492766576,0.0307950377464294,-0.0648069381713867,0.0669187903404236,0.098114209396904
2.497521108,0.0555962920188904,-0.0856971740722656,0.0973011553287506,0.141076107681392
2.502275587,0.115847766399384,-0.104035377502441,0.0894503593444824,0.179570129862009
2.507030118,0.151938021183014,-0.134078979492188,0.0840766131877899,0.21938826747984
2.511784597,0.190218925476074,-0.147249221801758,0.0812249779701233,0.253895785661642
2.516539128,0.21174019575119,-0.143684387207031,0.0784582793712616,0.267646810602539
2.52129366,0.192914962768555,-0.137758255004883,0.0900682806968689,0.253585912206639
2.526048139,0.183726787567139,-0.115270614624023,0.07792928814888,0.230468698562151
2.53080267,0.134324193000793,-0.0692367553710938,0.0185170471668243,0.152248475051179
2.535557201,0.0639098882675171,0.0286083221435547,-0.00953409075737,0.0706668861688817
2.54031168,-0.0202232599258423,0.113764762878418,-0.011344313621521,0.116103811162056
2.545066212,-0.136880159378052,0.174480438232422,-0.00137671828269959,0.221769016569873
2.549820743,-0.233640730381012,0.165874481201172,0.0037059485912323,0.28655901392504
2.554575222,-0.265580058097839,0.116996765136719,0.0228513479232788,0.291106843639271
2.559329753,-0.245093822479248,0.106479644775391,0.048811286687851,0.271645795618313
2.564084285,-0.203576743602753,0.0817975997924805,0.0720949769020081,0.230937271920781
2.568838764,-0.160069048404694,0.0383358001708984,0.0761685967445374,0.181365346640308
2.573593295,-0.105047881603241,0.0189590454101563,0.103855967521667,0.148931409790059
2.578347774,-0.014998733997345,-0.0382261276245117,0.102823466062546,0.110719754460548
2.583102305,0.0909754037857056,-0.0593404769897461,0.0922915935516357,0.142532643782549
2.587856837,0.155850112438202,-0.0826435089111328,0.0865842401981354,0.196509637837011
2.592611316,0.215601623058319,-0.105738639831543,0.0619564652442932,0.247998635892163
2.597365847,0.265406012535095,-0.140497207641602,0.0850698351860046,0.312116474578707
2.602120378,0.310148298740387,-0.170209884643555,0.0843469500541687,0.363700123763203
2.606874858,0.281123399734497,-0.171181678771973,0.048232227563858,0.332655799289963
2.611629389,0.271417140960693,-0.15078067779541,0.0362316071987152,0.312593676461828
2.61638392,0.235677421092987,-0.102076530456543,0.0339037775993347,0.259061635559169
2.621138399,0.178918063640594,-0.0751180648803711,0.0033276379108429,0.194075939627603
2.62589293,0.141654193401337,-0.0507516860961914,0.0134231746196747,0.151068943753043
2.630647462,0.130964815616608,-0.0289497375488281,0.0186408460140228,0.135415476861977
2.635401941,0.122796356678009,-0.0334272384643555,0.00951799750328064,0.127620209062743
2.640156472,0.0838542580604553,0.0238189697265625,0.0051552951335907,0.0873238626127977
2.644910951,0.0737623572349548,0.061610221862793,0.0245595276355743,0.0991961449882111
2.649665483,0.0495110154151917,0.0563831329345703,0.0367534458637238,0.0835536600623722
2.654420014,0.0325152277946472,0.0369606018066406,0.0180707275867462,0.0524392726871878
2.659174493,0.0132830739021301,0.0271883010864258,0.0445755422115326,0.0538759940205999
2.663929024,-0.00573205947875977,0.0103845596313477,0.0613689422607422,0.0625047410906354
2.668683555,-0.00798028707504273,0.0127010345458984,0.0732771158218384,0.07479663738099
2.673438035,-0.0338717103004456,-0.00398063659667969,0.0755261778831482,0.0828694260389746
2.678192566,-0.057115375995636,0.012700080871582,0.0683184862136841,0.0899492845318791
2.682947045,-0.0896532535552979,0.0173797607421875,0.0493036210536957,0.10378154462867
2.687701576,-0.167103409767151,0.0409927368164063,0.013821929693222,0.172612281625474
2.692456108,-0.198931276798248,0.0501613616943359,0.0236427187919617,0.206515842606535
2.697210639,-0.218733787536621,0.0900955200195313,-0.0139744579792023,0.236974593603445
2.701965118,-0.191016674041748,0.0822343826293945,-0.00622332096099854,0.208059109803423
2.706719649,-0.130408942699432,0.0649385452270508,-0.00336846709251404,0.145721836259165
2.711474128,-0.0678691267967224,0.0145730972290039,0.0136856734752655,0.0707523228838967
2.71622866,-0.0105932354927063,-0.0353755950927734,0.0352819561958313,0.0510731416634648
2.720983191,-0.00125002861022949,-0.0777902603149414,0.0733110010623932,0.106898971221256
2.72573767,0.052974283695221,-0.0937585830688477,0.0968568027019501,0.144838485430304
2.730492201,0.113867282867432,-0.121450424194336,0.0515089929103851,0.174267438138161
2.735246733,0.150634706020355,-0.110940933227539,0.0302738547325134,0.189513090850214
2.740001212,0.151604056358337,-0.117117881774902,0.0353968739509583,0.194816135936534
2.744755743,0.145542800426483,-0.111371040344238,0.0286435186862946,0.185490340843056
2.749510274,0.137202978134155,-0.0914316177368164,0.0385758578777313,0.169329544799057
2.754264753,0.117120981216431,-0.104867935180664,0.0698440968990326,0.17202559676338
2.759019285,0.0948310494422913,-0.0446386337280273,0.0510871112346649,0.116599436078114
2.763773816,0.0513729453086853,-0.0157556533813477,0.00875982642173767,0.0544440509339755
2.768528295,-0.0036507248878479,0.0271167755126953,-0.0356314778327942,0.0449249320418136
2.773282826,-0.00834447145462036,0.100476264953613,-0.0227493047714233,0.103356861845108
2.778037305,-0.0368443131446838,0.111528396606445,-0.00284811854362488,0.117491269632882
2.782791837,-0.119734168052673,0.0987558364868164,0.031066507101059,0.158284914325203
2.787546368,-0.178317904472351,0.0742206573486328,0.0315342247486115,0.195704850126842
2.792300847,-0.215165257453918,0.0878410339355469,0.0129477679729462,0.232765504217352
2.797055378,-0.159280955791473,0.0942163467407227,0.0537106394767761,0.192696589653314
2.80180991,-0.0991686582565308,0.0981597900390625,0.0870075821876526,0.164438701402847
2.806564389,-0.0491018891334534,0.0498695373535156,0.0535890161991119,0.0881461793245534
2.81131892,0.0123461484909058,0.00672340393066406,0.0418153703212738,0.044115266496754
2.816073451,0.0115855932235718,0.0113887786865234,0.0467609167098999,0.0495026623714612
2.82082793,0.0155119299888611,0.00178050994873047,0.0256921648979187,0.0300645559554553
2.825582462,0.0169734954833984,0.0112295150756836,0.0356474220752716,0.0410480238059339
2.830336941,0.00424367189407349,0.00636863708496094,0.0336562693119049,0.0345153987874972
2.835091472,-0.0558356642723084,-0.00319766998291016,0.0530394613742828,0.077078083531725
2.839846003,-0.0560984015464783,-0.0269203186035156,0.0651431977748871,0.0900853507853678
2.844600483,-0.0587210059165955,-0.0599308013916016,0.0819879174232483,0.117311022903638
2.849355014,-0.0399521589279175,-0.0689373016357422,0.0607613921165466,0.100202162310799
2.854109545,-0.0236966013908386,-0.0565118789672852,0.0587242245674133,0.0848743537997985
2.858864024,-0.00514441728591919,-0.0489273071289063,0.0187941789627075,0.0526646710326787
2.863618555,-0.0223339200019836,-0.0532674789428711,0.0219568610191345,0.0617926536199718
2.868373087,0.043605387210846,-0.0623178482055664,0.0417582392692566,0.0867680502584235
2.873127566,0.0449391603469849,-0.0451889038085938,-0.0120523273944855,0.0648600320362103
2.877882097,0.0651941895484924,-0.0234594345092773,-0.0369555652141571,0.0785260543939249
2.882636628,0.0355168581008911,0.00520992279052734,-0.0450512766838074,0.0576038890673456
2.887391108,0.00139540433883667,0.0360183715820313,-0.0246037840843201,0.0436419114608648
2.892145639,-0.0277586579322815,0.104527473449707,-0.0493985414505005,0.118898072706909
2.896900118,-0.00695526599884033,0.141605377197266,0.00888147950172424,0.142054001191216
2.901654649,0.0231192708015442,0.104812622070313,0.0523098111152649,0.119400597848436
2.90640918,0.0125595331192017,0.0873031616210938,0.0502836108207703,0.101528446350694
2.91116366,0.0495431423187256,0.0296049118041992,0.0767417848110199,0.0960222645521798
2.915918191,0.0744121670722961,0.0506916046142578,0.0508380830287933,0.103398839803965
2.920672722,0.0611143112182617,0.0929536819458008,0.105759114027023,0.153493766071279
2.925427201,0.0360099673271179,0.14197826385498,0.0700579881668091,0.162365842652189
2.930181733,0.0821182727813721,0.140756607055664,0.0560163855552673,0.172318509177322
2.934936264,0.115914046764374,0.115817070007324,0.0255523920059204,0.165839032436876
2.939690743,0.0805538296699524,0.0460081100463867,0.00259009003639221,0.0928028783547835
2.944445274,0.035981297492981,0.0194902420043945,0.0178625583648682,0.0446496841422936
2.949199753,0.0130687952041626,-0.0186729431152344,0.0567462146282196,0.0611523105639115
2.953954285,-0.00716930627822876,-0.0636310577392578,0.0715265572071075,0.0960018689788352
2.958708816,-0.0200046300888062,-0.0607509613037109,0.0909814536571503,0.111213710638046
2.963463347,-0.0208642482757568,-0.0484037399291992,0.0746763944625855,0.091404610305923
2.968217826,0.00906527042388916,-0.00294399261474609,0.0301001667976379,0.0315731889681664
2.972972358,0.0434878468513489,0.0112953186035156,0.00730985403060913,0.0455215444824768
2.977726837,0.00875723361968994,0.0254125595092773,-0.0651121139526367,0.0704419953214241
2.982481368,-0.0257437825202942,0.0488986968994141,-0.0894739627838135,0.105163752848366
2.987235899,-0.0529505610466003,0.110141754150391,-0.0709862112998962,0.14132943825399
2.991990378,-0.0847246646881104,0.116298675537109,-0.0835089087486267,0.166365226470513
2.99674491,-0.142433106899261,0.148490905761719,-0.103178948163986,0.230179569856099
3.001499441,-0.140504121780396,0.151922225952148,-0.0872817635536194,0.22458823928373
3.00625392,-0.112708628177643,0.133957862854004,-0.0809668302536011,0.19288227364746
3.011008451,-0.0734438300132752,0.0663051605224609,-0.0439290106296539,0.108259542091348
3.015762983,-0.0581647157669067,0.0324363708496094,-0.0190790593624115,0.0692767119621945
3.020517462,-0.0643497705459595,0.0415582656860352,0.0292662084102631,0.0820030083037304
3.025271993,-0.0681049823760986,0.0553464889526367,0.0439269244670868,0.0981381534214405
3.030026472,-0.0386121273040772,0.0381669998168945,0.0891393423080444,0.104371636937819
3.034781003,0.0000118017196655273,-0.000230789184570313,0.122111856937408,0.122112075601189
3.039535535,0.0834508538246155,-0.0406732559204102,0.116904258728027,0.149281494030486
3.044289962,0.116420328617096,-0.085515022277832,0.0976256728172302,0.17434816874148
3.049044545,0.12312126159668,-0.0872631072998047,0.0928122699260712,0.177166058830706
3.053799076,0.15352988243103,-0.0961112976074219,0.123655766248703,0.219316107145878
3.058553555,0.15756356716156,-0.109625816345215,0.128230929374695,0.2308403529592
3.063308087,0.152164340019226,-0.118270874023438,0.087831974029541,0.211793393848062
3.068062618,0.125553071498871,-0.107850074768066,0.0739481747150421,0.181283051976638
3.072817097,0.0754769444465637,-0.099879264831543,0.0721793174743652,0.144507752585612
3.077571628,0.0804314017295837,-0.10146427154541,0.0561511814594269,0.141128182740783
3.08232616,0.0451118946075439,-0.107772827148438,0.0236626863479614,0.11920565436191
3.087080639,0.0552150011062622,-0.130630493164063,0.0437107086181641,0.148403666192425
3.09183517,0.0154650807380676,-0.174644470214844,0.0256854891777039,0.177199334234518
3.096589649,0.0330464243888855,-0.175578117370605,0.00786674022674561,0.178834076915144
3.10134418,0.0173805356025696,-0.178866386413574,0.0329563617706299,0.182705744265578
3.106098712,0.0114489197731018,-0.146524429321289,0.0365393459796906,0.151445072407536
3.110853191,0.0340949892997742,-0.116822242736816,0.0211108028888702,0.123513443365587
3.115607722,0.0400002598762512,-0.111088752746582,0.0105557441711426,0.118541788041034
3.120362253,0.0507147908210754,-0.0840387344360352,-0.0212088823318481,0.100420693003992
3.125116733,0.0423555970191956,-0.0761995315551758,-0.0124274492263794,0.0880613803114337
3.129871264,0.0482504963874817,-0.0589313507080078,-0.00361359119415283,0.0762500658309687
3.134625795,0.0328018069267273,-0.0323104858398438,-0.00193852186203003,0.0460834449653518
3.139380274,0.0103605389595032,-0.00591373443603516,0.00915980339050293,0.0150404461590739
3.144134805,-0.0426816940307617,-0.0224399566650391,0.0438917875289917,0.0652055800752861
3.148889337,-0.0810434222221375,-0.034083366394043,0.0807031393051148,0.119342820663528
3.153643816,-0.0573940873146057,-0.0242757797241211,0.107713401317596,0.124441036492373
3.158398347,-0.0315067172050476,-0.0643692016601563,0.125057220458984,0.144136656476872
3.163152826,0.0178970694541931,-0.075653076171875,0.0924801230430603,0.120815008121406
3.167907358,0.0409034490585327,-0.0370101928710938,0.119490206241608,0.131608342854477
3.172661837,0.0708895325660706,0.0179262161254883,0.113118410110474,0.13469391136178
3.177416368,0.114917993545532,0.0202140808105469,0.0831297039985657,0.143266541768954
3.182170899,0.170493245124817,0.0129985809326172,0.0795537829399109,0.188588743353105
3.18692543,0.194811463356018,-0.0226249694824219,0.0855050086975098,0.213949765158448
3.19167991,0.183495223522186,-0.0270900726318359,0.112887918949127,0.217136020354339
3.196434441,0.174809753894806,-0.059971809387207,0.135417640209198,0.229113520460417
3.201188972,0.192408740520477,-0.121040344238281,0.164933562278748,0.280846877013001
3.205943451,0.198173642158508,-0.145995140075684,0.168209969997406,0.298130789048389
3.210697983,0.239649891853333,-0.154111862182617,0.192982137203217,0.344128816012593
3.215452514,0.269089937210083,-0.207217216491699,0.184553265571594,0.386533668587141
3.220206993,0.279586374759674,-0.198164939880371,0.152637243270874,0.375147987309515
3.224961524,0.306886494159699,-0.144079208374023,0.178099691867828,0.382959056332046
3.229716003,0.327123582363129,-0.0904207229614258,0.248542547225952,0.4206651198525
3.234470535,0.354476451873779,-0.0917558670043945,0.280665636062622,0.461352244309257
3.239225066,0.369913637638092,-0.152370452880859,0.284324645996094,0.490808881890464
3.243979545,0.399683773517609,-0.312105178833008,0.323768377304077,0.601650000922276
3.248734076,0.431920170783997,-0.460977554321289,0.337118983268738,0.71603390171015
3.253488608,0.502360999584198,-0.637030601501465,0.36255544424057,0.888606218356044
3.258243087,0.665424048900604,-0.837653160095215,0.449804902076721,1.16050697171754
3.262997618,0.81610631942749,-0.934500694274902,0.513108968734741,1.34261010200497
3.267752149,0.892861247062683,-0.926046371459961,0.465121567249298,1.36788199817124
3.272506628,0.946043729782105,-0.782325744628906,0.397017121315002,1.29021506113766
3.27726116,0.93058979511261,-0.544810295104981,0.460765838623047,1.17265544063979
3.282015691,0.775794923305512,-0.330552101135254,0.579271018505096,1.02307251330073
3.28677017,0.641693949699402,-0.144111633300781,0.628623485565186,0.909783916398592
3.291524701,0.525652527809143,-0.0516986846923828,0.68999046087265,0.868947737258298
3.29627918,0.702894866466522,0.0257692337036133,0.753630578517914,1.0308657990194
3.301033712,0.870016932487488,0.0267457962036133,0.750633299350739,1.14938903358423
3.305788243,1.02512454986572,0.00884532928466797,0.757589995861054,1.27471611914822
3.310542722,1.14925730228424,-0.00403785705566406,0.743766188621521,1.36894002588858
3.315297253,1.31123495101929,-0.0831317901611328,0.600383758544922,1.44454444335731
3.320051785,1.65295577049255,-0.180438995361328,0.47317174077034,1.72878931814009
3.324806264,1.98800492286682,-0.267337799072266,0.36421525478363,2.03869708980334
3.329560795,2.25037336349487,-0.351010322570801,0.273269534111023,2.29391908313082
3.334315326,2.49531602859497,-0.41013240814209,0.268905282020569,2.54305342560277
3.339069805,2.628089427948,-0.357107162475586,0.459684431552887,2.69178181571157
3.343824337,2.45021367073059,-0.176271438598633,0.424019277095795,2.49287203836249
3.348578816,1.93530797958374,-0.0324211120605469,0.0025031566619873,1.93558114532587
3.353333295,1.52449178695679,-0.0747613906860352,-0.270345211029053,1.55008096793759
3.358087878,1.2333949804306,-0.154631614685059,-0.455150425434113,1.3237582950767
3.36284241,0.859546482563019,-0.25984001159668,-0.517153084278107,1.03623563917257
3.367596889,0.204243063926697,-0.311868667602539,-0.526086628437042,0.644782471547267
3.37235142,-0.633463859558106,-0.211524963378906,-0.553489208221436,0.86739239973399
3.377105899,-1.42243552207947,-0.024144172668457,-0.57283878326416,1.53363947104882
3.38186043,-2.14743375778198,0.224985122680664,-0.628982782363892,2.24893516802942
3.386614962,-2.80827593803406,0.478527069091797,-0.625189125537872,2.91654990402795
3.391369441,-3.40254807472229,0.791387557983398,-0.533372402191162,3.53385254179436
3.396123972,-3.79415321350098,0.986629486083984,-0.416277885437012,3.94237537890978
3.400878503,-3.98090147972107,1.09066200256348,-0.334031581878662,4.14109856110351
3.405632983,-3.93926954269409,1.10358047485352,-0.267613112926483,4.09967695955248
3.410387514,-3.72934007644653,1.02551174163818,-0.212080836296082,3.87358103299157
3.415141993,-3.38497400283813,0.925871849060059,-0.231646656990051,3.51695150015842
3.419896524,-2.98043060302734,0.816638946533203,-0.273473262786865,3.10236254714308
3.424651055,-2.59714317321777,0.764723777770996,-0.301523566246033,2.72412767312433
3.429405587,-2.36889028549194,0.705534934997559,-0.373094797134399,2.49972407614298
3.434160066,-2.21417498588562,0.641477584838867,-0.411609768867493,2.34168464183362
3.438914597,-2.1355152130127,0.548648834228516,-0.40744411945343,2.24219791249259
3.443669076,-1.99170124530792,0.357820510864258,-0.327125549316406,2.04985865209576
3.448423608,-1.7991943359375,0.176679611206055,-0.197001695632935,1.81855041490957
3.453178139,-1.70826900005341,0.0387039184570313,-0.0958510637283325,1.71139369996072
3.457932618,-1.64466762542725,-0.0227117538452148,-0.0881388187408447,1.64718422565913
3.462687149,-1.52476513385773,-0.0339508056640625,-0.0900239944458008,1.52779766010077
3.46744168,-1.3128262758255,-0.0141868591308594,-0.0990282297134399,1.31663232823368
3.47219616,-1.05659008026123,0.0341596603393555,-0.174881339073181,1.07150966531197
3.476950691,-0.770330131053925,0.0776090621948242,-0.267384767532349,0.819100904194743
3.481705222,-0.470675826072693,0.0851125717163086,-0.307306408882141,0.568521865941332
3.486459701,-0.190951764583588,0.0782318115234375,-0.282800555229187,0.35008419954314
3.491214233,-0.0386918187141418,0.0546131134033203,-0.272645235061646,0.280740223681666
3.495968712,0.0531231164932251,0.00711536407470703,-0.262430667877197,0.267847996733857
3.500723243,0.125210046768188,-0.0498876571655273,-0.283188939094543,0.313627660410638
3.505477774,0.184861779212952,-0.11876106262207,-0.205848097801209,0.301083886611817
3.510232253,0.179886698722839,-0.13973331451416,-0.138133525848389,0.266393495652244
3.514986785,0.163138628005981,-0.131970405578613,-0.0657215118408203,0.219885690791604
3.519741316,0.129874885082245,-0.102663993835449,0.0210369825363159,0.166883001050451
3.524495795,0.147003650665283,-0.0542469024658203,0.107702016830444,0.190138171247654
3.529250326,0.154694974422455,-0.0154075622558594,0.206314742565155,0.258328668726408
3.534004858,0.117087304592133,0.00429916381835938,0.228385269641876,0.256686094472569
3.538759337,0.0867383480072022,0.031184196472168,0.217091798782349,0.235849198055005
3.543513868,0.0564777851104736,0.00548934936523438,0.193867444992065,0.202001137113606
3.548268399,0.0575579404830933,0.00376701354980469,0.158772468566895,0.168925438222209
3.553022878,0.0542952418327332,0.021204948425293,0.11886191368103,0.132384960049512
3.55777741,-0.0178007483482361,0.0410490036010742,0.13148033618927,0.138884722496183
3.562531941,-0.0991040468215942,0.0369968414306641,0.0842459201812744,0.135232220418997
3.56728642,-0.158545553684235,0.00429248809814453,0.106215119361877,0.190884178569548
3.572040951,-0.210515141487122,-0.0283498764038086,0.13282310962677,0.250524088140001
3.576795483,-0.231024980545044,-0.0322484970092773,0.147371172904968,0.275918049062727
3.581549962,-0.236697018146515,-0.0337142944335938,0.147471308708191,0.280909093730896
3.586304493,-0.165438771247864,0.0126371383666992,0.102035999298096,0.194784571901532
3.591058972,-0.0435758233070374,0.0732803344726563,0.0683608055114746,0.109279730634222
3.595813503,0.133448004722595,0.1195068359375,-0.015723705291748,0.179826273687512
3.600568035,0.341759324073792,0.127461433410645,-0.142884016036987,0.391741872458548
3.605322514,0.545423269271851,0.161701202392578,-0.239018797874451,0.61706061878534
3.610077045,0.708646893501282,0.179183959960938,-0.263541221618652,0.777007906438893
3.614831576,0.755184412002564,0.14650821685791,-0.252270936965942,0.809573208163546
3.619586055,0.768820583820343,0.118711471557617,-0.283993363380432,0.828148376819854
3.624340587,0.754338145256043,0.110095024108887,-0.325376391410828,0.828864734326051
3.629095118,0.759667932987213,0.144515991210938,-0.359817147254944,0.852905985196159
3.633849597,0.806282699108124,0.243409156799316,-0.353953003883362,0.913576782461601
3.638604128,0.860717475414276,0.308742523193359,-0.379399061203003,0.990000083713657
3.64335866,0.877571165561676,0.311897277832031,-0.519665122032166,1.06651905824557
3.648113139,0.864205837249756,0.26967716217041,-0.640893220901489,1.10919863934749
3.65286767,0.827757358551025,0.165388107299805,-0.59034526348114,1.03006941551829
3.657622149,0.768216729164124,0.046910285949707,-0.446994781494141,0.890034747961282
3.66237668,0.745367050170898,-0.0809326171875,-0.308770775794983,0.810840008873712
3.667131212,0.768799781799316,-0.12730884552002,-0.244861125946045,0.816833898440731
3.671885639,0.809863448143005,-0.0947017669677734,-0.221674203872681,0.844977326303779
3.676640222,0.818331956863403,-0.00710678100585938,-0.210472702980042,0.844994944754036
3.681394753,0.753618955612183,0.111503601074219,-0.216073989868164,0.791872813277526
3.686149233,0.725537240505219,0.184567451477051,-0.20529842376709,0.776284016520959
3.690903764,0.729256510734558,0.209725379943848,-0.0971202850341797,0.765004668748142
3.695658295,0.707276523113251,0.153631210327148,0.032204270362854,0.724485848007645
3.700412774,0.697935223579407,0.0546798706054688,0.0754455327987671,0.704127469270698
3.705167305,0.665408194065094,-0.0273008346557617,0.00185680389404297,0.665970605974897
3.709921837,0.578553855419159,-0.0851917266845703,-0.0308482646942139,0.585605506591695
3.714676316,0.55911111831665,-0.133388519287109,0.118158340454102,0.586821210524782
3.719430847,0.463523030281067,-0.145571708679199,0.0905777215957642,0.494215586174904
3.724185378,0.341883361339569,-0.167194366455078,-0.0679247379302979,0.386590169246525
3.728939858,0.297022461891174,-0.193482398986816,-0.0968579053878784,0.367476850184763
3.733694389,0.175994038581848,-0.104989051818848,-0.185449719429016,0.2763841548542
3.738448868,-0.0617219805717468,0.148257255554199,-0.333990097045898,0.370593040456632
3.743203399,-0.258792757987976,0.458400726318359,-0.182050228118896,0.556998386922588
3.74795793,-0.260605692863464,0.486065864562988,-0.0330427885055542,0.552509889249445
3.75271241,-0.193888068199158,0.303401947021484,-0.228103995323181,0.4262355653026
3.757466941,-0.215978801250458,0.0899457931518555,-0.470410704612732,0.525379214767341
3.762221472,-0.395587265491486,-0.0515232086181641,-0.471088290214539,0.617307138159441
3.766975951,-0.603397130966187,-0.10434627532959,-0.256630778312683,0.663954515920147
3.771730483,-0.720038235187531,-0.0853614807128906,-0.0136295557022095,0.72520852677703
3.776485014,-0.695651948451996,-0.0233278274536133,0.100350856781006,0.703239728240268
3.781239493,-0.549626350402832,0.00997161865234375,0.011186957359314,0.549830615963356
3.785994024,-0.344232797622681,-0.0236930847167969,-0.0755594968795776,0.353223468630313
3.790748555,-0.210776209831238,0.00957202911376953,-0.191106915473938,0.284675407287211
3.795503035,-0.156361401081085,0.138315200805664,-0.151663422584534,0.25803444783983
3.800257566,-0.0639666318893433,0.171267509460449,-0.0360567569732666,0.186344786660322
3.805012097,-0.0386688709259033,0.151640892028809,-0.0351580381393433,0.160394293414025
3.809766576,-0.111289858818054,0.165552139282227,-0.0961912870407105,0.221462654186236
3.814521108,-0.145268440246582,0.158014297485352,-0.0136381387710571,0.215075421121528
3.819275587,-0.121544718742371,0.0884160995483398,0.095145583152771,0.177885376877878
3.824030118,-0.102104067802429,0.0787143707275391,0.17268967628479,0.21550618811575
3.828784649,-0.0534020662307739,-0.000204086303710938,0.309761166572571,0.314330721765047
3.833539128,0.100779056549072,-0.0909004211425781,0.41563892364502,0.437235656884945
3.83829366,0.379509925842285,-0.205258369445801,0.349576830863953,0.555304189356834
3.843048191,0.715950131416321,-0.278703689575195,0.269498586654663,0.814180462469307
3.84780267,0.978915214538574,-0.280220985412598,0.261232733726501,1.0512094648979
3.852557201,1.20199489593506,-0.205093383789063,0.324786901473999,1.26188016756626
3.857311733,1.35392880439758,-0.115580558776855,0.146974325180054,1.36677852090482
3.862066212,1.46091079711914,0.0957498550415039,-0.100196123123169,1.46746981398892
3.866820743,1.54927837848663,0.261445999145508,-0.0249263048171997,1.57138118392299
3.871575274,1.48766589164734,0.345792770385742,-0.0119807720184326,1.52737224805221
3.876329753,1.34090411663055,0.337015151977539,-0.0538290739059448,1.38365480950155
3.881084285,1.10190534591675,0.330840110778809,-0.147870063781738,1.15996384686026
3.885838764,0.816231787204742,0.348713874816895,-0.1940598487854,0.908567510889462
3.890593295,0.741775214672089,0.321232795715332,0.0342879295349121,0.809071467953668
3.895347826,0.811563313007355,0.229367256164551,0.168820023536682,0.86008403633997
3.900102305,0.915685653686523,0.133007049560547,0.171631813049316,0.941078408449962
3.904856837,1.04945158958435,0.063262939453125,0.229364395141602,1.07608497069146
3.909611368,1.22012758255005,0.0965995788574219,0.208148598670959,1.24151868107715
3.914365847,1.43389320373535,0.169522285461426,0.0551282167434692,1.44493136351448
3.919120378,1.76778125762939,0.244402885437012,0.200025677680969,1.79577103689959
3.92387491,1.97411954402924,0.278544425964355,0.253706693649292,2.00975174032925
3.928629389,2.08728671073914,0.23200798034668,0.456795692443848,2.14924540720877
3.93338392,2.1270637512207,0.160087585449219,0.661173820495606,2.23319928749783
3.938138451,2.18914651870728,0.169818878173828,0.833728611469269,2.34868140226274
3.94289293,2.41832232475281,0.260568618774414,1.06964433193207,2.65712586610462
3.947647462,2.65906095504761,0.33437442779541,1.07405519485474,2.88721422520336
3.952401941,2.79291009902954,0.417518615722656,0.995957255363464,2.99442807064175
3.957156472,2.69971942901611,0.452962875366211,0.847786247730255,2.86572885732542
3.961911003,2.51896977424622,0.441103935241699,0.879168808460236,2.70420398620761
3.966665483,2.30119514465332,0.325448989868164,1.04134297370911,2.54672560902732
3.971420014,2.08023500442505,0.175751686096191,1.1078439950943,2.36338415122625
3.976174545,1.80155718326569,0.129912376403809,0.953531324863434,2.04247582546646
3.980929024,1.53189873695374,0.175134658813477,0.812362492084503,1.74279049444961
3.985683555,1.33968710899353,0.237059593200684,0.745744228363037,1.55148098759498
3.990438087,1.33790099620819,0.320309638977051,0.900335490703583,1.64413543733384
3.995192566,1.43471562862396,0.386782646179199,0.920940756797791,1.74818237833886
3.999947097,1.49402594566345,0.360708236694336,0.903620183467865,1.78290588487032
4.004701628,1.38321101665497,0.413736343383789,0.784849643707275,1.64330138491383
4.009456108,1.29318952560425,0.528594970703125,0.648672699928284,1.54030128994863
4.014210639,1.31595754623413,0.700013160705566,0.523930549621582,1.57995756572078
4.01896517,1.25602972507477,0.910904884338379,0.332131028175354,1.58671654634964
4.023719649,1.00483739376068,1.08969306945801,0.182673454284668,1.49348544165146
4.02847418,0.718092441558838,1.09901142120361,0.155781507492065,1.32202524054438
4.033228712,0.493663191795349,1.00680637359619,0.314524531364441,1.16459782829847
4.037983191,0.30983304977417,0.991849899291992,0.463508486747742,1.13780616044434
4.042737722,0.234818935394287,1.02537250518799,0.576285481452942,1.19943055778509
4.047492201,0.33772611618042,1.10724639892578,0.518709778785706,1.26850831770719
4.052246733,0.584671974182129,1.13698291778564,0.458124995231628,1.35810529193666
4.057001264,0.918259620666504,1.17922210693359,0.528377056121826,1.5852280031161
4.061755743,1.22615659236908,1.19580554962158,0.545537829399109,1.79750449924928
4.066510274,1.50358760356903,1.1748571395874,0.545643448829651,1.98463894784333
4.071264805,1.75788807868958,1.10455131530762,0.641098856925964,2.17283497985892
4.076019285,1.96278977394104,1.02325057983398,0.719677567481995,2.32755692668405
4.080773816,2.1996853351593,0.942995071411133,0.939224720001221,2.57099170614803
4.085528347,2.38034272193909,0.909300804138184,1.04632878303528,2.75457135476698
4.090282826,2.64114093780518,1.02498531341553,1.02701914310455,3.01346788042799
4.095037358,3.0777006149292,1.17284202575684,0.996072292327881,3.44092422236531
4.099791889,3.67798590660095,1.36725521087646,1.11358332633972,4.07885216274455
4.104546368,4.24141550064087,1.51993656158447,1.29819369316101,4.68882922116821
4.109300899,4.64149808883667,1.56895160675049,1.42572724819183,5.10272592241011
4.11405543,5.05272579193115,1.6292028427124,1.68048739433289,5.56851665290319
4.11880991,5.37950325012207,1.63867664337158,1.9932769536972,5.96636148533978
4.123564441,5.6554536819458,1.60955810546875,2.34041213989258,6.32869359568553
4.12831892,5.85696792602539,1.62341022491455,2.78674507141113,6.68621583093767
4.133073451,6.00125503540039,1.65897178649902,3.17219829559326,6.98785313346546
4.137827983,6.19371700286865,1.67813777923584,3.37715792655945,7.25144622669479
4.142582462,6.47279262542725,1.64530181884766,3.57374095916748,7.57467404514016
4.147336993,6.79100894927979,1.63254737854004,3.85031175613403,7.97545698451192
4.152091524,7.13199853897095,1.7143440246582,4.01337337493897,8.36131236358468
4.156846003,7.47918605804443,1.9745569229126,4.06800937652588,8.73989699139359
4.161600535,7.74417209625244,2.45137119293213,3.94715595245361,9.0311384827663
4.166355066,7.86435508728027,2.98674488067627,3.73933625221252,9.20605026752449
4.171109545,8.05406379699707,3.50396823883057,3.58110237121582,9.48525335760515
4.175864076,8.7357120513916,3.94346523284912,3.4419047832489,10.1838249996978
4.180618608,9.55542755126953,4.37738609313965,3.52218556404114,11.0848317913946
4.185373087,10.2077417373657,4.85367107391357,2.82373976707459,11.6503055986812
4.190127618,10.8768844604492,5.15232467651367,2.11332368850708,12.2196236501203
4.194882149,11.0848827362061,5.27830362319946,2.051917552948,12.4477098318613
4.199636628,10.3395652770996,5.36576509475708,1.37512862682343,11.7298347776866
4.20439116,10.0114097595215,5.18497037887573,0.167646646499634,11.2756529124013
4.209145691,10.0037174224854,5.04703283309937,-0.62502121925354,11.2221902591177
4.21390017,9.81505966186523,5.22693777084351,-0.79706621170044,11.1486137780479
4.218654701,9.21920490264893,5.51857805252075,-0.636046171188355,10.7635030306436
4.22340918,7.45632648468018,6.11496353149414,-1.36428165435791,9.73914000669792
4.228163712,5.09604597091675,6.72026872634888,-1.38271903991699,8.54655534325898
4.232918243,5.33531332015991,6.99815607070923,-1.38478541374207,8.90827633475708
4.237672722,5.63618040084839,6.61969804763794,-2.01302623748779,8.92408014226807
4.242427253,5.05093336105347,6.26766490936279,-2.71430921554565,8.49488232711064
4.247181785,4.27088451385498,5.96638822555542,-2.69798064231873,7.81775815276088
4.251936264,3.49137091636658,5.68447780609131,-2.56113409996033,7.14579363552955
4.256690795,2.76913785934448,5.71016693115234,-2.97364950180054,7.00833234266464
4.261445326,2.06988573074341,5.96476078033447,-3.31558656692505,7.13133314238827
4.266199805,1.29232788085938,5.96060419082642,-3.18532824516296,6.88078699719566
4.270954337,0.0505557060241699,6.04249238967896,-2.98037672042847,6.73772332130161
4.275708868,-0.0629019737243652,5.49959993362427,-2.06188321113586,5.87374824661241
4.280463347,-0.107199192047119,5.01182126998901,-2.01220107078552,5.40174020648534
4.285217878,-0.961923599243164,4.76294565200806,-3.15873622894287,5.79556406735355
4.28997241,-1.32148170471191,4.50297784805298,-3.45090246200562,5.82510525211524
4.294726837,-0.251591682434082,4.61474370956421,-2.51402688026428,5.26113001496103
4.29948142,0.584747791290283,5.83806467056274,-0.188640832901001,5.87030786594105
4.304235899,0.639016151428223,7.55532693862915,1.43340349197388,7.71660238460972
4.30899043,0.76349687576294,8.49904251098633,0.783283233642578,8.56914136345983
4.313744962,1.2418737411499,8.40580081939697,-1.09443068504334,8.5672350457249
4.318499493,1.25889205932617,7.69031143188477,-2.64412832260132,8.22904087502271
4.323253972,1.50145959854126,6.47841596603394,-2.9381856918335,7.27029500878129
4.328008503,1.68497657775879,5.46566963195801,-2.01801729202271,6.06507084741855
4.332762983,1.62257528305054,4.82861518859863,-1.04430055618286,5.19988834883748
4.337517514,1.0681266784668,4.53719520568848,-0.587990760803223,4.69816645837128
4.342272045,-0.0648689270019531,4.74402046203613,-0.407333612442017,4.76191755427716
4.347026524,-1.19015407562256,5.21094083786011,-0.584964275360107,5.37703955191393
4.351781055,-2.35085916519165,5.85506343841553,-0.876234531402588,6.36993670584396
4.356535587,-3.57598304748535,6.39060068130493,-1.20584297180176,7.42169044736045
4.361290066,-4.55787181854248,6.67344903945923,-1.22040939331055,8.17303595268023
4.366044597,-5.20627307891846,6.651282787323,-0.910938501358032,8.49556655217689
4.370799128,-5.5594334602356,6.38733911514282,-0.727439880371094,8.49909231331058
4.375553608,-5.7939510345459,6.10056018829346,-0.994823455810547,8.47209400974384
4.380308139,-5.69468307495117,5.85663318634033,-1.89835333824158,8.38649587135719
4.38506267,-5.77385759353638,5.49841594696045,-1.80891108512878,8.17570600927703
4.389817149,-5.96854591369629,4.96455669403076,-0.661699295043945,7.79154730776936
4.39457168,-6.16667318344116,4.54832363128662,-0.906972885131836,7.71606802851407
4.399326212,-6.63359689712524,4.14259624481201,-1.50301647186279,7.96396697354849
4.404080691,-6.90697145462036,3.72293138504028,-1.35844874382019,7.96315614327919
4.408835222,-6.94747686386108,3.31056690216064,-0.495129346847534,7.71183772246773
4.413589753,-6.75543403625488,2.88421487808228,0.0962307453155518,7.34600876922197
4.418344233,-6.64383268356323,2.50142860412598,0.0825366973876953,7.0996105593996
4.423098764,-6.57710695266724,2.11206007003784,-0.20596718788147,6.91097359919395
4.427853243,-6.37155675888062,1.54233741760254,-0.395483255386353,6.56749170130158
4.432607774,-5.97926712036133,0.88934850692749,-0.308492183685303,6.05291198439257
4.437362305,-5.60989093780518,0.221597194671631,-0.0475966930389404,5.61446765917689
4.442116837,-5.46580362319946,-0.392974376678467,0.0907683372497559,5.48066391955877
4.446871316,-5.60402536392212,-1.01621580123901,-0.041426420211792,5.69556941687676
4.451625847,-5.81933879852295,-1.72217798233032,-0.376525640487671,6.08049114897493
4.456380326,-5.96896696090698,-2.48685121536255,-0.658211469650269,6.49971060021356
4.461134858,-6.12732410430908,-3.18094539642334,-0.898555755615234,6.96203395138398
4.465889389,-6.36830377578735,-3.76118040084839,-1.22221636772156,7.49637137807086
4.470643868,-6.46228742599487,-4.25613689422607,-1.38589453697205,7.86107904210184
4.475398399,-6.40857744216919,-4.68685054779053,-1.19705891609192,8.02928284083948
4.48015293,-6.47628688812256,-5.08396816253662,-1.12093234062195,8.30936299888303
4.48490741,-6.67907857894898,-5.43768405914307,-1.20114755630493,8.69604818540301
4.489661941,-6.90712261199951,-5.79335403442383,-1.3540027141571,9.11617338006
4.494416472,-7.0845103263855,-6.15797424316406,-1.72235012054443,9.54344923399681
4.499170951,-7.00612163543701,-6.54541492462158,-1.98010730743408,9.79025136832305
4.503925483,-6.5120062828064,-7.05058526992798,-1.94020962715149,9.79190440481966
4.508680014,-5.92912673950195,-7.58887958526611,-2.06840085983276,9.85007204895999
4.513434493,-5.41211605072022,-8.0090503692627,-2.36143779754639,9.95049126603963
4.518189024,-5.06081485748291,-8.23916530609131,-2.74216413497925,10.0506296372906
4.522943555,-4.81759786605835,-8.27689266204834,-3.1503849029541,10.0817223912822
4.527698035,-4.53875064849854,-8.19400596618652,-3.70541191101074,10.0733345349694
4.532452566,-4.12378358840942,-8.07426834106445,-4.47672367095947,10.1114022347882
4.537207097,-3.35231471061707,-7.99891757965088,-4.99174499511719,10.0069083368114
4.541961576,-2.30470871925354,-8.17551517486572,-5.28216028213501,10.0025970578259
4.546716108,-1.42134702205658,-8.59376811981201,-5.40767240524292,10.2526093603839
4.551470639,-0.94620144367218,-9.10250663757324,-4.98756217956543,10.4224133843416
4.556225118,-0.707411766052246,-9.96902084350586,-4.2213249206543,10.8490272407594
4.560979649,-0.827032804489136,-11.0159378051758,-3.69252038002014,11.6477283512308
4.56573418,-1.5772830247879,-11.8011093139648,-3.46083450317383,12.3988458430126
4.57048866,-2.55681037902832,-12.0553636550903,-3.05139183998108,12.6956710863145
4.575243191,-3.6017119884491,-11.7370586395264,-2.63560962677002,12.5569627243271
4.57999767,-4.60658597946167,-10.9744157791138,-2.54077076911926,12.170207565208
4.584752201,-5.52680540084839,-9.92422676086426,-2.83665108680725,11.7082212196467
4.589506733,-5.70418643951416,-8.93415546417236,-2.98393297195435,11.011845112235
4.594261212,-5.71587657928467,-8.03103542327881,-3.19162082672119,10.3612363423066
4.599015743,-5.25118017196655,-7.35145473480225,-2.9723265171051,9.51070474994294
4.603770274,-4.49138689041138,-6.96244716644287,-2.51227736473084,8.65793071710593
4.608524753,-3.69358968734741,-6.90942764282227,-1.82703185081482,8.04492638336532
4.613279285,-3.23909211158752,-7.05615139007568,-1.30947268009186,7.87373538080386
4.618033816,-2.57556462287903,-7.50069808959961,-0.654700100421906,7.95755221028688
4.622788295,-2.6016674041748,-7.98496007919312,-0.693797469139099,8.42672033928012
4.627542826,-3.4059534072876,-8.32516574859619,-0.726272106170654,9.02421046554294
4.632297358,-4.10121822357178,-8.80592823028565,-0.353549182415009,9.72056376650476
4.637051837,-4.65103626251221,-9.42707061767578,-0.278419673442841,10.5156700338309
4.641806368,-5.04604291915894,-9.99972915649414,-0.180725038051605,11.2022227207198
4.646560899,-5.58713150024414,-10.3878536224365,-0.161765456199646,11.7961735043618
4.651315378,-6.34393882751465,-10.7541856765747,-0.547715485095978,12.4979222939698
4.65606991,-6.80342769622803,-11.4642925262451,-1.13581085205078,13.3793384678301
4.660824441,-6.36165714263916,-12.8736486434937,-4.22364473342896,14.9679887035914
4.66557892,-2.764817237854,-15.0909366607666,-8.07525253295898,17.3375398234313
4.670333451,0.154777228832245,-17.5646553039551,-8.41446304321289,19.4767620574601
4.67508793,2.01011204719543,-18.6561698913574,-2.03677201271057,18.8743653055999
4.679842462,-0.138505399227142,-18.3465270996094,-2.69585728645325,18.5440526010697
4.684596993,-7.47886466979981,-16.5995254516602,-15.9772548675537,24.2229299440068
4.689351524,-13.6530752182007,-9.02881050109863,-15.2913074493408,22.3997760142565
4.694106003,-15.7885990142822,2.04329681396484,-11.4676847457886,19.6204667154618
4.698860535,-19.3825340270996,14.6714239120483,-6.3970103263855,25.1367270350493
4.703615066,-19.79416847229,23.9532089233398,10.4634094238281,32.7879285714304
4.708369545,-12.413685798645,27.3222541809082,26.2686080932617,39.8828903139054
4.713124076,-4.12305688858032,24.4055194854736,13.2504644393921,28.0749672719648
4.717878608,8.74475479125977,15.2389087677002,-9.08657169342041,19.7803150108693
4.722633087,19.1543235778809,5.06987285614014,-10.2688035964966,22.3168109237635
4.727387618,14.9568996429443,-1.05473899841309,-7.24300098419189,16.6517982374543
4.732142097,3.90265607833862,-4.29830408096314,-4.35445499420166,7.25723230541406
4.736896628,-4.67528057098389,-6.84278011322022,-1.45911979675293,8.41492238090036
4.74165116,-11.9169702529907,-8.0204963684082,-0.0811550617218018,14.3648574009754
4.746405639,-17.900541305542,-8.48122501373291,2.38250946998596,19.95086234075
4.75116017,-20.9280662536621,-9.40315628051758,4.1939058303833,23.3236393229623
4.755914701,-20.1500244140625,-10.6421375274658,-0.70342230796814,22.7985389440674
4.76066918,-16.6515617370605,-10.4988918304443,-5.11263656616211,20.3381486524258
4.765423712,-13.8539400100708,-8.6971321105957,-3.6919276714325,16.7690813905498
4.770178243,-13.124547958374,-6.41470432281494,-2.06825757026672,14.7539784477871
4.774932722,-14.7142496109009,-3.77815008163452,-4.09218740463257,15.7330720905323
4.779687253,-14.6721038818359,-1.42907094955444,-7.46177387237549,16.5224376355522
4.784441785,-13.377329826355,-0.410893440246582,-9.60206413269043,16.4718372475758
4.789196264,-11.4993028640747,-1.34118366241455,-10.6934671401978,15.7601706670497
4.793950795,-9.57103538513184,-2.85252141952515,-12.2732715606689,15.8232358130131
4.798705326,-6.70350933074951,-3.50049304962158,-12.9845542907715,15.0262816114928
4.803459805,-4.84494304656982,-1.75636434555054,-11.0022134780884,12.1493617221752
4.808214337,-4.82172679901123,2.06967067718506,-10.0271911621094,11.3171175056985
4.812968868,-5.33001136779785,6.51162719726563,-10.2411737442017,13.2548839902863
4.817723347,-5.61761093139648,10.3579874038696,-8.61265563964844,14.5953174957736
4.822477878,-6.25685882568359,12.5978746414185,-7.79452753067017,16.0813366133479
4.82723241,-7.20756340026856,12.3939723968506,-7.25054264068604,16.0664212109353
4.831986889,-7.91087436676025,10.3040246963501,-6.34535837173462,14.4574697321281
4.83674142,-8.32710933685303,8.16905403137207,-5.71176242828369,12.9883957328276
4.841495951,-8.61983871459961,7.2709379196167,-5.60202407836914,12.5916969258023
4.84625043,-8.80790328979492,7.89247798919678,-5.11742687225342,12.8863659332334
4.851004962,-8.56736469268799,9.36958026885986,-4.84833908081055,13.5902598957724
4.855759493,-7.68512773513794,11.0819625854492,-4.7171745300293,14.2871557210468
4.860513972,-6.66982412338257,12.9191598892212,-3.96065735816956,15.0691092234724
4.865268503,-5.79702949523926,14.510516166687,-3.24099779129028,15.9582172273568
4.870023035,-4.92761659622192,15.877721786499,-1.71517586708069,16.7130273351013
4.874777514,-3.74762535095215,17.0455551147461,0.515838384628296,17.4602902089284
4.879531993,-2.53108263015747,18.2540855407715,2.33111238479614,18.5755781380025
4.884286524,-1.2407374382019,19.3771553039551,3.94103503227234,19.8127568548586
4.889041055,-0.0115261077880859,20.1760063171387,5.16527223587036,20.8266992351413
4.893795587,1.05663752555847,20.2782592773438,6.28568840026856,21.2563910588055
4.898550118,2.41705656051636,19.5556888580322,7.25298881530762,20.9969753984682
4.903304597,3.86855268478394,18.4108009338379,7.6826548576355,20.3210845321283
4.908059128,5.14142751693726,16.9636421203613,7.62492847442627,19.2960867830691
4.91281366,6.36480236053467,15.4227771759033,7.8983473777771,18.4595952340855
4.917568139,7.76503562927246,13.9105319976807,7.83732271194458,17.7545010088577
4.92232267,9.49877738952637,12.574951171875,6.72859382629395,17.1356395780858
4.927077201,11.4482774734497,11.3606700897217,5.6342716217041,17.0842880654633
4.93183168,13.2075023651123,10.2844848632813,5.29741859436035,17.5576590521454
4.936586212,14.643120765686,9.3730640411377,4.37995481491089,17.9292866410907
4.941340691,15.9876708984375,8.44521903991699,4.65067386627197,18.6696575437084
4.946095222,17.9709415435791,7.20010757446289,4.78622150421143,19.942522541894
4.950849753,19.4145030975342,6.06045341491699,4.63290405273438,20.8594301475468
4.955604285,20.2027778625488,4.65836334228516,5.16525363922119,21.3666194693903
4.960358764,20.9996299743652,2.72274780273438,6.51938104629517,22.1562664698804
4.965113295,21.3650035858154,0.483686447143555,7.82051610946655,22.7564892507496
4.969867826,21.1289463043213,-1.68294858932495,8.4092435836792,22.8030714057307
4.974622305,20.3594341278076,-3.48883533477783,8.44792556762695,22.3169437063837
4.979376837,19.8876934051514,-4.74090147018433,8.19383907318115,22.0257915745266
4.984131316,19.6116180419922,-5.33584547042847,7.98483085632324,21.8367656239054
4.988885847,19.1928215026855,-5.48620510101318,7.59807443618774,21.3586886016483
4.993640378,18.7469673156738,-5.31109857559204,7.01722621917725,20.7098531000514
4.998394858,18.3897972106934,-4.87686443328857,6.61072874069214,20.1412557362771
5.003149389,17.5585746765137,-4.19659996032715,6.39427661895752,19.1520695847073
5.00790392,16.8995780944824,-3.44783115386963,6.38890838623047,18.3929722939157
5.012658451,16.8009777069092,-3.13007068634033,6.30004978179932,18.2143026674835
5.01741293,16.1329917907715,-3.25321626663208,4.81042909622192,17.1463427088216
5.022167462,13.9058361053467,-3.25476264953613,3.02321219444275,14.5981358284613
5.026921993,11.3080644607544,-2.81065368652344,2.23650217056274,11.8648235533899
5.031676472,10.3634014129639,-2.08412790298462,3.16759133338928,11.0352758378567
5.036431003,11.046407699585,-1.08299589157105,5.08708572387695,12.2096045934618
5.041185535,12.0483694076538,0.411759376525879,6.93939685821533,13.9099956837971
5.045940014,11.5244779586792,2.37800741195679,8.3353967666626,14.4203797012802
5.050694545,10.2218952178955,4.1530179977417,8.62171649932861,14.0024532039924
5.055449024,8.96940231323242,5.17966508865356,7.88873100280762,13.0196461212236
5.060203555,8.59690284729004,5.12328195571899,6.50485324859619,11.935990631251
5.064958087,8.60743045806885,4.74722146987915,5.42787075042725,11.2287911930856
5.069712566,8.8628044128418,4.1776967048645,4.59384918212891,10.8215480466646
5.074467097,9.01371574401856,3.7799506187439,4.15872049331665,10.622149233354
5.079221628,9.3163537979126,3.54049777984619,3.99820399284363,10.7384918766728
5.08397616,9.61160659790039,3.42894220352173,3.36913681030273,10.7467068851082
5.088730639,9.89851570129395,3.55803871154785,2.34268093109131,10.7762890879252
5.09348517,9.97591209411621,4.18621921539307,1.11280024051666,10.8757334375275
5.098239649,9.7211799621582,5.39185476303101,-0.313138723373413,11.1207685661721
5.10299418,8.96279716491699,7.02768707275391,-1.8741602897644,11.5426424792474
5.107748712,7.71664094924927,8.67574310302734,-3.95181322097778,12.2650680252028
5.112503191,6.31562423706055,10.1763954162598,-5.86248779296875,13.3347252050624
5.117257722,5.21202087402344,11.3584365844727,-6.93810606002808,14.2939343406545
5.122012253,4.35720252990723,12.0134630203247,-6.90281391143799,14.5243708133358
5.126766733,3.4390549659729,12.1611404418945,-6.12630081176758,14.0446430194124
5.131521264,2.1990270614624,11.8669281005859,-5.18147277832031,13.1342058273043
5.136275795,0.536125659942627,11.3446311950684,-4.52192449569702,12.2243972783999
5.141030274,-1.25705051422119,10.6164827346802,-4.16193866729736,11.472210559496
5.145784805,-2.93371820449829,9.82205390930176,-4.03643417358398,11.0169072946227
5.150539337,-4.3186731338501,9.19151496887207,-3.87822246551514,10.8708552815344
5.155293816,-5.63311100006104,9.00457286834717,-3.85928130149841,11.300810778191
5.160048347,-7.10310077667236,9.32223129272461,-4.20700454711914,12.4521855181369
5.164802878,-8.59982681274414,10.0967798233032,-4.75800657272339,14.0904439445865
5.169557358,-9.82630157470703,10.9215145111084,-5.30235958099365,15.6189211848833
5.174311889,-10.5340843200684,11.4694337844849,-5.82781457901001,16.6276356276626
5.17906642,-10.5534191131592,11.3983888626099,-6.16861343383789,16.7137582648962
5.183820899,-10.0507135391235,10.7195625305176,-6.43824148178101,16.0429678323221
5.18857543,-9.51610374450684,9.59831619262695,-6.91246366500855,15.1811085935753
5.193329962,-9.28364944458008,8.36965274810791,-7.53435659408569,14.5946484514224
5.198084441,-9.3407793045044,7.18609714508057,-7.98187255859375,14.2337781258394
5.202838972,-9.49379730224609,6.21121597290039,-8.24902153015137,14.0270362972029
5.207593503,-9.53508949279785,5.56224489212036,-8.1396369934082,13.7153268375217
5.212347983,-9.34106731414795,4.98754358291626,-7.46626329421997,12.9567054893421
5.217102514,-9.27826976776123,4.42684745788574,-6.68238115310669,12.2612187882827
5.221857045,-9.45808410644531,3.67886352539063,-6.56699752807617,12.0877974973442
5.226611524,-9.47840976715088,2.68875026702881,-6.73308181762695,11.933315569251
5.231366055,-9.18769836425781,1.55071210861206,-6.54804134368897,11.3883868355023
5.236120587,-8.83917617797852,0.417136669158936,-6.30577945709229,10.8659050735586
5.240875066,-8.53914260864258,-0.636186599731445,-5.98313188552856,10.4460306834722
5.245629597,-8.41257476806641,-1.55053186416626,-5.60553741455078,10.2272974434125
5.250384128,-8.68966102600098,-2.27713680267334,-5.5353569984436,10.551575136685
5.255138608,-9.11135196685791,-2.92332887649536,-5.56100559234619,11.067401211767
5.259893139,-9.50526809692383,-3.49127912521362,-5.51160049438477,11.5289588226454
5.26464767,-9.93328094482422,-4.0237774848938,-5.23595809936523,11.9279550969583
5.269402149,-10.6388893127441,-4.51330804824829,-5.14681434631348,12.6509135347066
5.27415668,-11.246732711792,-4.96178245544434,-5.21345090866089,13.3524661468458
5.278911212,-11.5394287109375,-5.38760280609131,-4.73819971084595,13.5880541458618
5.283665691,-11.853307723999,-5.74899864196777,-4.01599597930908,13.7724403462491
5.288420222,-12.5005016326904,-5.93020725250244,-3.67312502861023,14.3150880752558
5.293174753,-13.3398904800415,-6.08123207092285,-3.94257760047913,15.1815012319508
5.297929233,-13.5855617523193,-6.50246238708496,-3.84051465988159,15.5434570824608
5.302683764,-13.0893030166626,-7.31198930740356,-2.97260046005249,15.2850055475522
5.307438295,-12.3396339416504,-8.59641265869141,-2.21158266067505,15.2005254605701
5.312192774,-11.8222236633301,-10.0816736221313,-1.98438775539398,15.6634258747165
5.316947305,-11.3874435424805,-11.4585084915161,-1.49984073638916,16.2240811609736
5.321701837,-10.829122543335,-12.609395980835,-1.05127274990082,16.6544869766302
5.326456316,-10.2950105667114,-13.3216171264648,-1.16794085502625,16.8765165621837
5.331210847,-9.56026363372803,-13.514536857605,-1.45696127414703,16.6181853213975
5.335965378,-7.99859952926636,-13.5475206375122,-1.86893129348755,15.8431630059523
5.340719858,-6.40012073516846,-12.9646701812744,-2.59690380096436,14.6897286457382
5.345474389,-5.1095404624939,-11.948878288269,-3.2465124130249,13.3948848047923
5.35022892,-4.35659694671631,-10.4487638473511,-4.24075698852539,12.0888635830493
5.354983451,-3.88116788864136,-8.62105655670166,-4.80556440353394,10.6056366885813
5.35973793,-3.73651576042175,-6.82307910919189,-4.63187837600708,9.05374264314449
5.364492462,-4.5133581161499,-5.47388505935669,-4.3020076751709,8.29705304098352
5.369246941,-5.72683238983154,-4.76029825210571,-4.12670278549194,8.51391358600798
5.374001472,-7.23892021179199,-4.47474908828735,-4.0502233505249,9.42494851046711
5.378756003,-8.622727394104,-4.49371957778931,-3.62869811058044,10.378458138595
5.383510483,-9.57647609710693,-4.59841346740723,-3.19428253173828,11.0931394000193
5.388265014,-9.74697399139404,-5.10076904296875,-2.75375032424927,11.3403918656686
5.393019545,-8.60771942138672,-6.36467933654785,-2.76182746887207,11.0557526954167
5.397774076,-7.38586044311523,-7.45133066177368,-2.97051596641541,10.904000560482
5.402528555,-5.7687292098999,-8.76821804046631,-3.08454656600952,10.939575486288
5.407283087,-3.76413202285767,-10.0053186416626,-3.30169439315796,11.1882204515515
5.412037566,-1.694256067276,-10.9796485900879,-3.71788883209229,11.7151988523933
5.416792097,-0.145380735397339,-11.5514373779297,-4.6521201133728,12.4538774124248
5.421546628,0.516700744628906,-11.5521583557129,-5.81725358963013,12.9444884665649
5.42630116,-0.172483444213867,-10.9635419845581,-6.45407342910767,12.723366976316
5.431055639,-2.45672678947449,-10.1657657623291,-6.44165706634522,12.2830470899146
5.43581017,-4.4780068397522,-9.95872974395752,-6.47775983810425,12.6960708839471
5.440564649,-5.74829864501953,-10.3340797424316,-6.20457410812378,13.3541334911131
5.44531918,-7.09285163879395,-10.7200622558594,-5.3877100944519,13.9375643209745
5.450073712,-8.73182106018066,-10.7916421890259,-4.67404937744141,14.6475587640309
5.454828243,-10.5901260375977,-10.4889268875122,-4.39720439910889,15.5403913487184
5.459582722,-12.0249195098877,-9.98347473144531,-4.45201539993286,16.2508122275142
5.464337253,-12.379979133606,-8.73923778533936,-5.70657444000244,16.1926882344011
5.469091785,-10.784309387207,-7.70493602752686,-5.61827230453491,14.3955670897394
5.473846264,-7.05832815170288,-7.78523397445679,-3.90375185012817,11.210224923771
5.478600795,-5.33422803878784,-7.91653442382813,-6.46375179290772,11.5284688182674
5.483355274,-3.71639060974121,-8.18646240234375,-10.3080835342407,13.6779498455743
5.488109805,-0.64080274105072,-8.97110748291016,-10.512640953064,13.8349924984043
5.492864337,3.16135692596436,-8.84896087646484,-13.6922187805176,16.6064788965062
5.497618868,17.7109050750732,-4.95631313323975,2.07328009605408,18.5078277712344
5.502373347,37.6294822692871,8.72031879425049,46.6546897888184,60.5696456570354
5.507127878,22.8237209320068,33.0039672851563,31.8063297271729,51.2037762714375
5.51188241,1.72364056110382,57.4593658447266,-28.461633682251,64.1452589980324
5.516636889,-20.7128944396973,49.8152542114258,-54.3843193054199,76.604423726916
5.52139142,-29.5221290588379,18.5812530517578,-35.1136245727539,49.4953098765575
5.526145951,-28.218204498291,-3.75638675689697,-5.74315118789673,29.0406833966042
5.53090043,-16.5353012084961,-20.0625877380371,15.7279653549194,30.3857286733044
5.535654962,-8.8896017074585,-33.1440811157227,17.0909423828125,38.3360853903404
5.540409493,-20.4629592895508,-40.5225524902344,-2.03816843032837,45.4418759929649
5.545163972,-39.7659149169922,-40.6637229919434,-10.2072629928589,57.7845530791435
5.549918503,-49.7384414672852,-30.6412658691406,-11.0415868759155,59.4534807592987
5.554673035,-45.8588066101074,-19.0006790161133,-9.42261409759522,50.5256529221424
5.559427514,-30.0120067596436,-10.7637634277344,-14.5594615936279,35.0507785186784
5.564182045,-15.4252281188965,-5.37197113037109,-5.39479207992554,17.201730085406
5.568936576,-9.51779270172119,1.81855201721191,-2.20446252822876,9.93756330247045
5.573691055,-9.44322776794434,10.9665222167969,-7.0851845741272,16.113317493869
5.578445587,-10.4261026382446,19.3444576263428,-16.5582294464111,27.5152070586536
5.583200118,-10.2284650802612,23.4032173156738,-24.0716896057129,35.0966995470595
5.587954597,-6.33654260635376,18.995719909668,-19.7938709259033,28.1564641480427
5.592709128,-1.26470422744751,9.41491317749023,-11.9781579971313,15.2877838788637
5.59746366,0.415915489196777,1.46620845794678,-9.21127605438232,9.33650681391845
5.602218139,-1.21976327896118,-2.87341642379761,-10.1052703857422,10.576428223659
5.60697267,-5.42767810821533,-4.66201686859131,-9.81746959686279,12.1481192048298
5.611727201,-11.7165203094482,-4.20901584625244,-7.18904876708984,14.3761985493841
5.61648168,-15.1523780822754,-3.036292552948,-5.19653367996216,16.3039135271961
5.621236212,-13.7415437698364,-1.29801845550537,-6.98433446884155,15.4691888947615
5.625990743,-11.4480485916138,1.34019088745117,-9.15050315856934,14.7168487192654
5.630745222,-10.4019365310669,4.32118797302246,-9.01080894470215,14.4245494533612
5.635499753,-10.12380027771,6.90495014190674,-7.85438919067383,14.5554490856089
5.640254285,-10.0340728759766,8.71774291992188,-7.4766001701355,15.2506134369188
5.645008764,-9.66837024688721,9.76497459411621,-7.77020978927612,15.7863318166061
5.649763295,-8.80397510528565,10.2374420166016,-7.25970792770386,15.3303149313161
5.654517826,-7.17087268829346,10.1540632247925,-5.53090476989746,13.605782691873
5.659272305,-5.09543895721436,9.88373184204102,-3.52289628982544,11.6645810709575
5.664026837,-3.16107821464539,10.2327213287354,-1.78313255310059,10.8572815645809
5.668781368,-1.85216164588928,11.7077569961548,-0.282452821731567,11.8567219854401
5.673535847,-0.768592357635498,14.1625099182129,1.27124845981598,14.2402069522279
5.678290378,0.673516988754273,16.8868827819824,2.96381497383118,17.1582235218469
5.68304491,2.44253540039063,19.0519046783447,4.50742816925049,19.7296213789279
5.687799389,3.40332221984863,20.1828002929688,5.97069358825684,21.3208163943791
5.69255392,3.68966150283813,20.0009651184082,7.8024640083313,21.7837244812409
5.697308451,3.91435647010803,18.5487327575684,9.20634269714356,21.0744968942088
5.702062983,4.32088088989258,16.6162281036377,10.3766098022461,20.0609839999146
5.706817462,4.90363788604736,14.7344245910645,10.811975479126,18.9221496217651
5.711571993,5.68143701553345,13.0684375762939,10.8823356628418,17.9300869135017
5.716326524,6.80703544616699,11.7688407897949,10.8900375366211,17.4193645880075
5.721081003,8.1348295211792,10.7136478424072,10.627462387085,17.1435310895589
5.725835535,9.83015537261963,9.6734094619751,10.2642917633057,17.191930975639
5.730590066,12.0035037994385,8.59599208831787,10.0441913604736,17.8566784014097
5.735344545,14.3283748626709,7.56335639953613,10.0026044845581,19.0409764115742
5.740099076,16.253454208374,6.63558101654053,9.72547149658203,20.069641376009
5.744853608,17.4565563201904,5.74560070037842,8.98073863983154,20.4547537869595
5.749608087,17.9011840820313,4.75185203552246,7.75466346740723,20.0790262413048
5.754362618,17.9447116851807,3.40299224853516,6.47879409790039,19.379571890804
5.759117149,18.0139923095703,1.70650863647461,5.55391597747803,18.9278121646562
5.763871628,18.1328811645508,-0.157278060913086,5.02490282058716,18.8169010220203
5.76862616,18.2259082794189,-1.93625259399414,4.74467468261719,18.9326370208011
5.773380691,18.6143493652344,-3.4575629234314,4.84530973434448,19.5429212269359
5.77813517,19.0482139587402,-4.67267751693726,4.93046760559082,20.2232015518072
5.782889701,18.9526405334473,-5.27982616424561,4.25780582427979,20.1297803751554
5.787644233,18.1104755401611,-4.97309350967407,2.97409772872925,19.0148952310227
5.792398712,17.0621757507324,-4.03787517547607,2.34682869911194,17.689824256464
5.797153243,16.9628028869629,-2.82937240600586,4.21926212310791,17.7071794156302
5.801907722,16.7333221435547,-1.46218633651733,3.78374004364014,17.2179774526662
5.806662253,16.2633018493652,-0.186490535736084,3.61208438873291,16.6606398254933
5.811416785,15.7183837890625,0.764794826507568,4.50156402587891,16.36815746338
5.816171316,15.5372428894043,0.598303318023682,4.8602466583252,16.2906685266279
5.820925795,14.5252380371094,-0.534646034240723,3.78026270866394,15.0186142024866
5.825680326,12.6144876480103,-1.82671022415161,2.71310472488403,13.0316194739185
5.830434858,11.3280572891235,-2.73805665969849,2.32567167282105,11.8840474985228
5.835189337,10.5250825881958,-3.10829496383667,2.84682655334473,11.3376929970512
5.839943868,9.88354110717773,-2.38717317581177,4.30068349838257,11.0398758662336
5.844698399,9.11632919311523,-1.05983304977417,6.16138744354248,11.0541123243832
5.849452878,8.70430660247803,0.158491611480713,7.00769519805908,11.1757713384693
5.85420741,8.55115127563477,1.02490663528442,6.81827020645142,10.9845996903858
5.858961941,8.49613380432129,1.15515232086182,5.97619152069092,10.4514846599563
5.863716472,7.89457416534424,1.20953941345215,5.52492141723633,9.71143879718405
5.868470951,7.55079078674316,1.14539289474487,5.11425971984863,9.19141005888453
5.873225483,7.63818788528442,1.04952049255371,5.01448249816895,9.19719751661551
5.877979962,7.96755838394165,1.17344570159912,4.69991683959961,9.324600780477
5.882734493,8.44568347930908,1.54083347320557,3.90892505645752,9.43310300600107
5.887489024,8.72617626190186,2.0577244758606,2.54132628440857,9.31872960527137
5.892243555,8.62535667419434,2.6228084564209,0.530320882797241,9.03089930155755
5.896998035,8.02164649963379,3.2113823890686,-2.06589317321777,8.88412651964473
5.901752566,7.00840377807617,3.86823225021362,-5.15943908691406,9.52369444856993
5.906507097,5.73568534851074,4.62151336669922,-8.2116289138794,11.0311976518853
5.911261576,4.52796077728272,5.78883075714111,-10.2040271759033,12.5751803542537
5.916016108,3.74800586700439,7.64668083190918,-10.1380100250244,13.2400348561355
5.920770639,4.0796070098877,9.95248413085938,-7.66539192199707,13.2080796124172
5.925525118,4.74749565124512,12.1391754150391,-5.45122337341309,14.1284865071431
5.930279649,4.85538196563721,13.5498008728027,-4.86109638214111,15.1921721870609
5.93503418,4.03675365447998,14.0611581802368,-5.47142219543457,15.6188351126866
5.93978866,2.60749244689941,13.4998512268066,-6.24418830871582,15.1008240715947
5.944543191,0.935417175292969,12.1586818695068,-6.19962167739868,13.6800533273295
5.949297722,-0.738083839416504,10.619387626648,-5.27828311920166,11.8817689762704
5.954052201,-2.34864711761475,9.14017105102539,-4.31050205230713,10.3749360512741
5.958806733,-3.86833763122559,7.82103252410889,-3.59910368919373,9.43854507526944
5.963561264,-5.10709619522095,6.72119045257568,-3.29063630104065,9.06008388000692
5.968315743,-6.1903133392334,6.07421445846558,-3.44139862060547,9.3305565209814
5.973070274,-6.88698625564575,5.73307228088379,-3.90108227729797,9.7732870825296
5.977824805,-7.07111644744873,5.44117021560669,-4.50611114501953,9.99560197186015
5.982579285,-7.00820922851563,5.11765193939209,-5.2861909866333,10.1611600278009
5.987333816,-6.83393001556397,4.64674758911133,-6.01238441467285,10.219766580717
5.992088347,-6.6956000328064,3.96810960769653,-6.44124698638916,10.1028024031789
5.996842826,-6.72335863113403,3.30574131011963,-6.49748134613037,9.9170933612419
6.001597358,-6.97806358337402,2.82313823699951,-6.21860408782959,9.76393965978848
6.006351889,-7.40899229049683,2.63979387283325,-5.69209051132202,9.70883993280204
6.011106368,-7.87567806243897,2.68321847915649,-5.35602951049805,9.89510073053303
6.015860899,-8.20762443542481,2.79944324493408,-4.97096729278564,9.9956239015148
6.020615378,-8.3731861114502,2.69900178909302,-4.46899318695068,9.86745947138986
6.025369962,-8.33081817626953,2.3468713760376,-4.06111288070679,9.56049028928799
6.030124441,-8.23885917663574,1.92157506942749,-3.67359709739685,9.22315384854242
6.034878972,-8.14981651306152,1.55368757247925,-3.37680864334106,8.95747123261859
6.039633503,-8.07994079589844,1.23487520217896,-3.0411069393158,8.72116342276276
6.044387983,-8.0380744934082,1.00196075439453,-2.65973711013794,8.52577083963505
6.049142514,-8.06887626647949,0.824536323547363,-2.18114972114563,8.3990498545168
6.053897045,-8.09763336181641,0.626562118530273,-1.63780355453491,8.28532718931645
6.058651524,-8.27194023132324,0.408535003662109,-1.35134172439575,8.39154458344196
6.063406055,-8.4937219619751,0.0560407638549805,-1.12625050544739,8.56824915228147
6.068160587,-8.69143486022949,-0.344342231750488,-0.943586111068726,8.74928375646722
6.072915066,-8.81026935577393,-0.827760696411133,-0.618869066238403,8.87068389770253
6.077669597,-8.96498489379883,-1.23081827163696,-0.285286426544189,9.05357697868676
6.082424128,-9.17451858520508,-1.4524073600769,-0.357611894607544,9.29565299895837
6.087178608,-9.35990905761719,-1.42749309539795,-0.502045631408691,9.48143891612922
6.091933139,-9.11019134521484,-1.39953517913818,-0.289990901947022,9.22162565859647
6.09668767,-8.68315601348877,-1.41802406311035,-0.185586094856262,8.80013822600249
6.101442149,-8.30021667480469,-1.55400991439819,-0.705515027046204,8.47385951713513
6.10619668,-7.88154458999634,-2.01481151580811,-1.48421585559845,8.269286987059
6.110951212,-7.55278873443604,-2.80919742584229,-2.07070779800415,8.3200984747236
6.115705691,-7.32224225997925,-3.75945997238159,-2.32443380355835,8.55288042152409
6.120460222,-7.02850103378296,-4.61161804199219,-2.23549842834473,8.69852291887811
6.125214753,-6.62027978897095,-5.33909893035889,-2.00378084182739,8.73780404532461
6.129969233,-6.2566556930542,-6.07086086273193,-1.64019477367401,8.87081343348317
6.134723764,-5.97676753997803,-6.82113695144653,-1.69817233085632,9.22677889637604
6.139478295,-5.99158811569214,-7.31518936157227,-2.33875751495361,9.74068325414164
6.144232826,-5.75902128219605,-7.565589427948,-2.26084566116333,9.77322324643546
6.148987305,-5.32521915435791,-7.4010009765625,-1.40957713127136,9.2260328519913
6.153741837,-4.64555597305298,-6.98260879516602,-0.527838826179504,8.40337014009978
6.158496368,-4.46465635299683,-6.34971475601196,-0.341147303581238,7.76971140492436
6.163250847,-4.94674205780029,-5.67311239242554,-0.864534556865692,7.57640291982399
6.168005378,-5.36027717590332,-5.47942638397217,-1.30026280879974,7.77479056128383
6.17275991,-5.20540952682495,-6.11781406402588,-1.67039382457733,8.20452026587411
6.177514389,-4.95478057861328,-7.26560783386231,-1.68471193313599,8.95417009417039
6.18226892,-4.90916919708252,-8.60052680969238,-1.51705121994019,10.0185052784207
6.187023451,-4.89904880523682,-9.91054248809815,-1.48864185810089,11.1550699767496
6.19177793,-4.52078199386597,-11.0675048828125,-1.8077347278595,12.0911140517924
6.196532462,-3.75271987915039,-11.9673261642456,-2.14807152748108,12.7245437364168
6.201286993,-3.32037687301636,-12.3220462799072,-2.55056762695313,13.0139587490778
6.206041472,-3.29210805892944,-12.1114501953125,-3.14351677894592,12.9385818019101
6.210796003,-3.67984819412231,-11.4942827224731,-3.72816705703735,12.6316684424944
6.215550535,-4.11843109130859,-10.884593963623,-4.17731857299805,12.3647018106831
6.220305014,-4.66606569290161,-10.5046768188477,-4.54261827468872,12.3594411244378
6.225059545,-5.45726108551025,-10.2825717926025,-4.92076539993286,12.638311332873
6.229814076,-6.49025201797485,-10.249059677124,-5.27957630157471,13.230288033381
6.234568555,-7.41452884674072,-10.3607168197632,-5.47486591339111,13.8670057261143
6.239323087,-8.16690349578857,-10.6051979064941,-5.68235111236572,14.5415834595011
6.244077618,-8.41667366027832,-11.1589269638062,-5.80726146697998,15.1355981788978
6.248832097,-8.07438850402832,-12.0189952850342,-5.5081992149353,15.4916834452255
6.253586628,-7.77639865875244,-12.5685091018677,-5.54550838470459,15.785831000882
6.25834116,-8.17272186279297,-11.7133865356445,-7.21403551101685,16.0012223012558
6.263095639,-6.28444623947144,-11.3021774291992,-7.2282886505127,14.8149126218496
6.26785017,-2.21205306053162,-10.3761434555054,-3.56372594833374,11.1918575038579
6.272604701,-1.67495977878571,-9.23112392425537,-7.99221467971802,12.3245541360412
6.277359233,-0.466538310050964,-9.69156742095947,-12.4910087585449,15.816745457767
6.282113712,2.52639818191528,-9.97333335876465,-13.3525104522705,16.8564409480954
6.286868243,11.2984390258789,-8.50690746307373,-5.42868041992188,15.1490187836852
6.291622722,26.1024150848389,1.12832641601563,20.5952281951904,33.2681922889458
6.296377253,28.6609916687012,23.9489135742188,17.2567291259766,41.1436216799893
6.301131785,8.85575866699219,40.6376953125,-20.9723606109619,46.5798953570724
6.305886316,-26.2511692047119,39.9813117980957,-51.3011436462402,70.1386948632717
6.310640795,-47.2611656188965,23.1880531311035,-31.4702949523926,61.332561075323
6.315395326,-48.2030754089356,4.0116548538208,-0.565693378448486,48.373028254846
6.320149858,-40.1854476928711,-11.0345869064331,8.77618789672852,42.5870143174042
6.324904337,-34.5271377563477,-27.4599285125732,15.8302965164185,46.8697045367172
6.329658868,-33.7713317871094,-44.6012420654297,10.4139089584351,56.9053876557278
6.334413399,-32.692626953125,-48.2765121459961,-13.2039318084717,59.7810446319021
6.339167878,-26.3010597229004,-33.9835968017578,-18.9763259887695,46.9758612711259
6.34392241,-21.6271018981934,-17.500904083252,-9.41082859039307,29.3696590889949
6.348676941,-18.6929893493652,-6.75891494750977,-2.95400309562683,20.0956939758777
6.353431368,-17.839916229248,2.02571868896484,-5.70822238922119,18.8401154486435
6.358185951,-17.3945140838623,10.9102897644043,-13.8441572189331,24.7641723475566
6.362940483,-14.8754301071167,19.1995506286621,-15.9139881134033,29.0371517695489
6.367694962,-10.6233005523682,23.2945442199707,-16.8154792785645,30.6308773692486
6.372449493,-4.92160701751709,19.631929397583,-16.8410491943359,26.3297513370826
6.377204024,0.494092702865601,11.1253213882446,-12.358907699585,16.6360903795819
6.381958555,0.661574602127075,3.51029205322266,-7.96768951416016,8.73177573275651
6.386713035,-4.60454082489014,-0.890347480773926,-7.33271884918213,8.70421050789509
6.391467566,-11.2005414962769,-2.50548934936523,-6.52221393585205,13.2010939438603
6.396222097,-15.6550416946411,-2.84971523284912,-4.59354639053345,16.5620613394368
6.400976576,-16.7231826782227,-2.41674661636353,-5.12642192840576,17.6574546547613
6.405731108,-14.5228710174561,-1.23663568496704,-7.39168739318848,16.342585258325
6.410485639,-12.3425245285034,0.559458732604981,-8.70231056213379,15.1122835776074
6.415240118,-11.4523582458496,2.8834285736084,-8.16283321380615,14.3562709575571
6.419994649,-11.1354360580444,5.28162860870361,-7.98107528686523,14.6830207960652
6.42474918,-10.7364282608032,7.30501747131348,-7.5175051689148,15.0049010666592
6.42950366,-9.8104362487793,8.6142168045044,-7.07051420211792,14.8472745522106
6.434258191,-8.31602287292481,9.44557666778565,-6.92611026763916,14.3647540337286
6.439012722,-6.42396354675293,10.0830755233765,-6.89461040496826,13.8011366305975
6.443767201,-4.4135913848877,10.8185501098633,-6.20200443267822,13.2282150865239
6.448521733,-2.29684543609619,11.8011226654053,-4.62867736816406,12.8828044035378
6.453276264,-0.219362497329712,13.2734174728394,-3.34959101676941,13.6912925355181
6.458030743,1.71988773345947,15.0856237411499,-1.96779656410217,15.3103324847288
6.462785274,3.20746779441834,16.6861362457275,-0.206017017364502,16.9928642516398
6.467539805,3.86710119247437,17.6285438537598,1.01019239425659,18.0759652220893
6.472294285,3.81680965423584,17.8271141052246,2.16044449806213,18.358691502571
6.477048816,4.02185726165772,17.2484931945801,4.17805337905884,18.1973070357921
6.481803347,4.90950202941895,15.9579811096191,6.07942390441895,17.7685048971896
6.486557878,5.91627788543701,14.516303062439,6.90190887451172,17.1278061855671
6.491312358,6.86897134780884,13.1442384719849,7.40705060958862,16.5776406981945
6.496066889,7.68483209609985,11.8279905319214,7.81573581695557,16.1258714719208
6.50082142,8.45081901550293,10.539361000061,8.06400394439697,15.7328519963052
6.505575899,9.38947486877441,9.42423820495606,8.14722633361816,15.599865415647
6.51033043,10.7731370925903,8.52299785614014,7.96474552154541,15.8788899641786
6.515084962,12.6922931671143,7.64439964294434,7.50972175598145,16.6110527238127
6.519839441,15.0801315307617,6.84871101379395,7.63350296020508,18.2369289349659
6.524593972,17.5550594329834,6.12480354309082,8.64891719818115,20.5060259152775
6.529348503,19.2601184844971,5.47344017028809,9.05001544952393,21.9730173388001
6.534102983,19.7727699279785,4.8131046295166,8.49793434143066,22.0531923963564
6.538857514,19.2811813354492,3.94932079315186,7.31629276275635,20.9973624107424
6.543612045,18.701301574707,2.60182857513428,6.23134899139404,19.8831059639854
6.548366524,18.4523105621338,0.878728866577148,5.43640518188477,19.2565425454315
6.553121055,18.3095283508301,-0.977289199829102,5.36327409744263,19.1038904847744
6.557875587,18.0400314331055,-2.77821969985962,5.47526836395264,19.0562273933069
6.562630066,17.5542545318604,-4.22412061691284,5.08314514160156,18.7572229204154
6.567384597,16.9075603485107,-5.04720592498779,4.23362064361572,18.145617331516
6.572139128,16.5824146270752,-5.13123416900635,3.65785932540894,17.7393904575636
6.576893608,16.5620384216309,-4.39386034011841,3.8925085067749,17.5715323134711
6.581648139,16.2902164459229,-2.97993898391724,4.38493394851685,17.1312239473933
6.58640267,15.5929479598999,-1.41925287246704,4.2946891784668,16.235721725128
6.591157201,14.8588886260986,-0.0455513000488281,3.92375373840332,15.3682949452232
6.59591168,14.306245803833,0.898598194122315,4.30352210998535,14.966510958313
6.600666212,13.6331338882446,1.20503234863281,4.39232969284058,14.3738304813527
6.605420743,12.5097198486328,0.664888858795166,3.77910947799683,13.084985148349
6.610175222,11.1815786361694,-0.596391677856445,3.2331223487854,11.6548901304334
6.614929753,10.1214332580566,-1.90631103515625,3.31330800056458,10.8192163702672
6.619684285,9.45816040039063,-2.5665717124939,4.14510345458984,10.6407692938125
6.624438764,9.20142555236816,-2.36471176147461,4.95128440856934,10.7132306614378
6.629193295,9.15690517425537,-1.59987258911133,5.50947713851929,10.8056856798429
6.633947826,9.89849472045898,-1.12828969955444,5.67693042755127,11.4665066369986
6.638702305,10.8551597595215,-1.04561138153076,5.20110177993774,12.0821875623247
6.643456837,11.2608194351196,-1.15826988220215,4.53491115570068,12.194796540348
6.648211368,11.1246128082275,-1.19952392578125,4.24412441253662,11.9669737114523
6.652965847,11.0009660720825,-1.11497354507446,4.38973569869995,11.8968147009932
6.657720378,10.5171709060669,-0.647539138793945,4.54256534576416,11.4745409809817
6.66247491,10.0082941055298,0.424770832061768,4.22091770172119,10.8702588472978
6.667229389,9.92320919036865,1.80384826660156,3.19072198867798,10.5784997052404
6.67198392,10.0509777069092,3.19874906539917,2.00314545631409,10.736234915804
6.676738451,9.5887041091919,4.66570806503296,-0.502450466156006,10.6754173085968
6.681492983,8.44775867462158,6.33279323577881,-4.71255111694336,11.5618785161225
6.686247462,7.63011741638184,8.16284847259522,-8.49615573883057,14.0369316202932
6.691001993,7.31565523147583,10.0597496032715,-9.65960502624512,15.7488203624716
6.695756524,7.34952354431152,11.8159160614014,-8.10257911682129,16.1022717975701
6.700511003,7.56695222854614,12.9381418228149,-5.6822452545166,16.0294164269586
6.705265535,7.42662620544434,13.3143997192383,-3.81439900398254,15.7155227861064
6.710020066,6.34668636322022,13.1792316436768,-2.76951026916504,14.8876714647317
6.714774545,4.44220352172852,12.8995904922485,-2.65361714363098,13.8987154421241
6.719529076,2.03178358078003,12.7350673675537,-2.92869067192078,13.2244967551531
6.724283608,-0.460096836090088,12.6658878326416,-3.05744981765747,13.0378066819206
6.729038087,-2.90879392623901,12.812557220459,-2.94270706176758,13.4641089376251
6.733792618,-5.14069509506226,12.9705715179443,-2.67863154411316,14.206953878704
6.738547149,-6.79614448547363,12.7077922821045,-2.5721333026886,14.6386964679014
6.743301628,-7.50022792816162,11.8429946899414,-2.82498264312744,14.3000164032887
6.74805616,-7.4182653427124,10.6293315887451,-3.19266557693481,13.3493993948989
6.752810691,-7.20768594741821,9.58833694458008,-3.51772284507751,12.5004526355724
6.75756517,-7.41498756408691,8.8631534576416,-4.02568674087524,12.236980163624
6.762319701,-7.72205495834351,8.54336357116699,-4.761474609375,12.4615743124432
6.767074233,-9.06926727294922,8.37103271484375,-5.62555408477783,13.5636520281941
6.771828764,-10.3451881408691,8.4018497467041,-5.66713380813599,14.482071759092
6.776583243,-11.1548986434937,8.57388877868652,-4.92082023620606,14.9049590517035
6.781337774,-11.6124725341797,8.58475208282471,-3.86330032348633,14.948999166168
6.786092305,-11.6932106018066,8.21418857574463,-2.96546244621277,14.5944522218545
6.790846785,-11.3130016326904,7.4411997795105,-2.70593571662903,13.8086041366379
6.795601316,-10.5718650817871,6.35085964202881,-2.82307982444763,12.6517796849085
6.800355847,-9.6554479598999,5.093177318573,-2.88085246086121,11.2901479798102
6.805110326,-8.9852352142334,3.98067235946655,-2.86481356620789,10.2365697896146
6.809864858,-8.64531517028809,3.10754346847534,-2.85911846160889,9.62147905363774
6.814619389,-8.49984359741211,2.53863000869751,-2.88428664207459,9.32797367787758
6.819373868,-8.40781688690186,1.97999095916748,-2.65410590171814,9.03637245467406
6.824128399,-8.58114910125732,1.47733163833618,-2.35764217376709,9.02092596617241
6.82888293,-9.00670433044434,1.0307765007019,-1.95244479179382,9.27336313078739
