Time (s),Linear Acceleration x (m/s^2),Linear Acceleration y (m/s^2),Linear Acceleration z (m/s^2),Absolute acceleration (m/s^2)
0.068072204,0.514107525348663,-0.104282379150391,-0.244649291038513,0.57882176689119
0.072826839,0.428605675697327,-0.0774507522583008,-0.189317941665649,0.474913389263618
0.077581527,0.286099851131439,-0.0305709838867188,-0.141932725906372,0.320831121552207
0.082336162,0.0724981874227524,-0.0252370834350586,-0.0654876232147217,0.100903549760184
0.087090798,-0.0987280160188675,-0.0161733627319336,-0.0222725868225098,0.102493253108908
0.091845485,-0.149368792772293,-0.0278139114379883,0.0616943836212158,0.163984288558795
0.096600121,-0.130692049860954,-0.0476875305175781,0.175634384155273,0.224057915194544
0.101354756,-0.118369162082672,-0.0218296051025391,0.231569051742554,0.260982788543674
0.106109444,-0.120897889137268,0.0382194519042969,0.240115404129028,0.27153716762491
0.110864079,-0.103858008980751,0.0498857498168945,0.264684915542603,0.288674866554112
0.115618714,-0.0252366662025452,0.0633249282836914,0.295622825622559,0.303380604014527
0.12037335,0.0895097404718399,0.0512914657592773,0.219410181045532,0.242453367981359
0.125128037,0.189359039068222,0.0354185104370117,0.138678073883057,0.23736664621284
0.129882673,0.275559663772583,0.0796222686767578,0.0986478328704834,0.303321988813432
0.134637308,0.324035286903381,0.124286651611328,0.0401067733764648,0.34936312369508
0.139391996,0.279409319162369,0.14437198638916,-0.0271944999694824,0.31567765032913
0.144146631,0.241580680012703,0.118050575256348,-0.117019176483154,0.2932416255216
0.148901319,0.235566973686218,0.0516481399536133,-0.171294450759888,0.295805879443738
0.153655954,0.310893416404724,-0.0604381561279297,-0.156982183456421,0.353483935989587
0.158410589,0.331252306699753,-0.124680519104004,-0.111175775527954,0.370989724388955
0.163165225,0.270971894264221,-0.13603687286377,-0.104070901870728,0.320565985213466
0.167919912,0.234100043773651,-0.100971221923828,-0.113514184951782,0.279076133585235
0.172674548,0.302907317876816,-0.0579805374145508,-0.124926090240479,0.332747823381279
0.177429183,0.381393641233444,-0.0465641021728516,-0.140630006790161,0.409152934725232
0.182183871,0.425443023443222,-0.0448341369628906,-0.160570621490479,0.456940685997161
0.186938506,0.43853497505188,-0.071040153503418,-0.175424098968506,0.477632957669856
0.191693194,0.395979791879654,-0.0779609680175781,-0.187680006027222,0.445086163314105
0.196447829,0.341134905815125,-0.0731410980224609,-0.213638544082642,0.409101542044485
0.201202464,0.316153943538666,-0.0522451400756836,-0.169213533401489,0.362375620817398
0.205957152,0.241081118583679,-0.0296249389648438,-0.186647176742554,0.306324846090216
0.210711787,0.203332901000977,-0.0192699432373047,-0.161827564239502,0.260583498881898
0.215466423,0.227424278855324,-0.00685024261474609,-0.0841960906982422,0.242606080149718
0.22022111,0.258264273405075,-0.00640964508056641,0.0170974731445313,0.258908945491341
0.224975746,0.246756047010422,0.00801944732666016,0.0459017753601074,0.251117166384229
0.229730381,0.231298178434372,0.0174636840820313,0.0505795478820801,0.237407072920609
0.234485069,0.221247538924217,0.0150241851806641,0.122888803482056,0.253530782434041
0.239239704,0.249131724238396,0.0149993896484375,0.174856424331665,0.304739834681777
0.243994339,0.267249554395676,0.0126180648803711,0.181418180465698,0.323255465676138
0.248749027,0.308554530143738,-0.00378799438476563,0.134258508682251,0.336519827242414
0.253503662,0.314073503017426,-0.031580924987793,0.135109663009644,0.343357162673652
0.258258298,0.279907137155533,-0.0846214294433594,0.159598588943481,0.333137361075569
0.263012985,0.230169951915741,-0.103843688964844,0.179136514663696,0.309599110768391
0.267767621,0.15348719060421,-0.129825592041016,0.186913967132568,0.274499240686761
0.272522308,0.0924621671438217,-0.127243995666504,0.180710554122925,0.239575856791797
0.277276944,0.0420928299427033,-0.131830215454102,0.191238880157471,0.236057877062265
0.282031579,0.0395877510309219,-0.138765335083008,0.17364239692688,0.225775752158857
0.286786266,0.0182908028364182,-0.101031303405762,0.130717277526855,0.166219386295043
0.291540902,0.0772712379693985,-0.0499897003173828,0.121782541275024,0.152646001305466
0.296295537,0.144722521305084,-0.00929355621337891,0.0849089622497559,0.168049130406326
0.301050225,0.161883428692818,0.0189037322998047,0.0582265853881836,0.173072039411838
0.30580486,0.127265512943268,0.034846305847168,0.0320827960968018,0.135794262107412
0.310559496,0.0814856439828873,0.0223169326782227,-0.0242378711700439,0.0878944256385228
0.315314183,0.10939747095108,-0.0135107040405273,-0.0443933010101318,0.118832280752072
0.320068819,0.183989182114601,-0.0487680435180664,-0.00769734382629395,0.190498268511186
0.324823506,0.210553094744682,-0.0246362686157227,-0.0704102516174316,0.223376710895964
0.329578141,0.178146049380302,0.0108499526977539,-0.127328872680664,0.21924045749241
0.334332777,0.0922449380159378,0.036346435546875,-0.11974573135376,0.155464568773641
0.339087464,0.0289033651351929,0.0591182708740234,-0.0935182571411133,0.11435050890129
0.3438421,-0.0689268559217453,0.0462303161621094,-0.067765474319458,0.107146223029311
0.348596735,-0.151200205087662,0.0523891448974609,-0.0541436672210693,0.168930936248468
0.353351423,-0.21354866027832,0.0514383316040039,-0.097477912902832,0.240314118954258
0.358106058,-0.235118687152863,0.0316896438598633,-0.156873226165771,0.284419126755055
0.362860694,-0.18817064166069,0.01934814453125,-0.128353834152222,0.228598442298661
0.367615381,-0.139710709452629,-0.00696754455566406,-0.137999057769775,0.196497758150667
0.372370016,-0.117969870567322,0.00720310211181641,-0.164105176925659,0.202235714292767
0.377124704,-0.10844586789608,0.0329828262329102,-0.142690420150757,0.182233172317347
0.381879339,-0.106222689151764,0.00413703918457031,-0.11215353012085,0.154527632164656
0.386633975,-0.120660573244095,0.0346946716308594,-0.0324747562408447,0.12968154829454
0.391388662,-0.113709151744843,0.0506916046142578,0.00128698348999023,0.124503278251632
0.396143298,-0.137648910284042,0.0499467849731445,-0.0243701934814453,0.148444636689444
0.400897985,-0.147199064493179,0.0232515335083008,-0.0993545055389404,0.179107554751446
0.405652621,-0.135457247495651,0.0536060333251953,-0.0931408405303955,0.172908903422203
0.410407256,-0.0649248361587524,0.0481653213500977,-0.0539951324462891,0.0972142317713375
0.415161944,0.0471667125821114,0.0735311508178711,0.0176877975463867,0.0891312913540804
0.419916579,0.158009648323059,0.0702114105224609,0.0153448581695557,0.17358616247551
0.424671214,0.173072427511215,0.0763816833496094,-0.0152781009674072,0.189793696115322
0.429425902,0.190525144338608,0.0517683029174805,0.00405120849609375,0.19747455558244
0.434180537,0.188952922821045,0.0132637023925781,0.0680778026580811,0.201280202847988
0.438935225,0.168601959943771,-0.0224399566650391,0.0817627906799316,0.18872023339266
0.44368986,0.162822380661964,-0.029383659362793,0.0693964958190918,0.179416835090656
0.448444496,0.171420335769653,0.00157928466796875,0.0525054931640625,0.179288182733399
0.453199183,0.111397325992584,0.0203647613525391,0.0523743629455566,0.124768432053933
0.457953819,0.085113599896431,0.0176362991333008,0.0475785732269287,0.0990912940916568
0.462708506,0.0969766974449158,0.00547504425048828,0.0949001312255859,0.135795768945505
0.467463141,0.139556676149368,-0.0302581787109375,0.118219375610352,0.185384584058287
0.472217777,0.134567588567734,-0.0751209259033203,0.143836736679077,0.210809383614661
0.476972464,0.0682554394006729,-0.0887451171875,0.126590967178345,0.168996372160916
0.4817271,0.035943016409874,-0.111706733703613,0.135579347610474,0.179309939160806
0.486481787,0.00863438844680786,-0.117918968200684,0.161282777786255,0.199978924229066
0.491236423,-0.0396769866347313,-0.11464786529541,0.108762741088867,0.162934741950178
0.495991058,-0.115947023034096,-0.0854110717773438,0.0309057235717773,0.14728858435778
0.500745746,-0.212734818458557,-0.0233449935913086,0.0463149547576904,0.218966131501153
0.505500381,-0.289709031581879,0.0262413024902344,0.075843095779419,0.300619533819577
0.510255069,-0.377902507781982,0.0492582321166992,0.114675760269165,0.397978904984278
0.515009704,-0.406187802553177,0.0578031539916992,0.0893428325653076,0.41989507890086
0.519764339,-0.403721034526825,0.0402336120605469,0.0404641628265381,0.407733694624446
0.524519027,-0.316240519285202,-0.0126914978027344,0.079681396484375,0.326371360722646
0.529273662,-0.277123004198074,-0.00823688507080078,0.116166114807129,0.300598689220061
0.53402835,-0.295496046543121,0.048304557800293,0.0338754653930664,0.301328377326951
0.538782985,-0.306858152151108,0.0758676528930664,0.00218915939331055,0.316105391785627
0.543537621,-0.271007865667343,0.0818500518798828,0.0182056427001953,0.283683167763679
0.548292308,-0.261723399162293,0.0711669921875,0.0175940990447998,0.271796671736941
0.553046944,-0.278748095035553,0.0700712203979492,-0.0327982902526856,0.289285679316324
0.557801631,-0.267313599586487,0.0595340728759766,-0.0354304313659668,0.276145218723528
0.562556266,-0.180247515439987,0.00642871856689453,-0.0475831031799316,0.186533232837832
0.567310902,-0.153292968869209,-0.0390777587890625,-0.102374076843262,0.188431040824548
0.572065589,-0.195322543382645,-0.0509862899780273,-0.154322624206543,0.254098347222453
0.576820225,-0.203884482383728,-0.069920539855957,-0.136997222900391,0.255393819684519
0.581574912,-0.19584259390831,-0.0815792083740234,-0.0771384239196777,0.225742829946998
0.586329548,-0.176052004098892,-0.0504722595214844,-0.0508964061737061,0.190084721347717
0.591084183,-0.196796119213104,0.0206842422485352,-0.0461750030517578,0.203196164633007
0.595838871,-0.212660074234009,0.103120803833008,-0.04392409324646,0.24039037693698
0.600593506,-0.24040661752224,0.187251091003418,-0.0440669059753418,0.30789641932425
0.605348194,-0.234897375106812,0.18529224395752,-0.039574146270752,0.301788179947363
0.610102829,-0.217930927872658,0.150162696838379,-0.0399749279022217,0.267657840733277
0.614857464,-0.239428281784058,0.0939731597900391,-0.0688431262969971,0.266263465231966
0.619612152,-0.334688365459442,0.0430135726928711,-0.0524461269378662,0.341492409345363
0.624366787,-0.358279705047607,0.0114631652832031,-0.00296807289123535,0.358475327831635
0.629121475,-0.317706942558289,-0.0245819091796875,0.00819253921508789,0.318761806538118
0.63387611,-0.260802835226059,-0.0176210403442383,0.0145163536071777,0.261800199478176
0.638630746,-0.223280102014542,0.0391340255737305,-0.0125393867492676,0.227030200927712
0.643385433,-0.20266492664814,0.0645961761474609,-0.0418541431427002,0.216789085897744
0.648140069,-0.104112915694714,0.0946073532104492,-0.0567469596862793,0.15169135746501
0.652894756,0.0338583588600159,0.072174072265625,-0.104735612869263,0.131624594112185
0.657649391,0.189661055803299,0.0499429702758789,-0.0859503746032715,0.214133330574299
0.662404079,0.230463474988937,-0.0290336608886719,-0.0460267066955566,0.236801234156019
0.667158714,0.244973003864288,-0.0480480194091797,-0.0229902267456055,0.250696899297243
0.67191335,0.19787485897541,-0.0598125457763672,-0.0261354446411133,0.208362813173026
0.676668037,0.08491151034832,-0.0549087524414063,-0.0599327087402344,0.117545162645029
0.681422673,-0.0342070907354355,-0.00497531890869141,-0.102885484695435,0.108537098799627
0.68617736,-0.0431225374341011,-0.0503511428833008,-0.0814757347106934,0.105038498518673
0.690931996,0.0453630015254021,-0.0787296295166016,-0.0270798206329346,0.0948128322366065
0.695686631,0.116655111312866,-0.0878925323486328,0.000770092010498047,0.146061991222143
0.700441319,0.168412744998932,-0.0946197509765625,0.0331957340240479,0.196004353804545
0.705195954,0.191229701042175,-0.0775899887084961,-0.000967979431152344,0.206373307122417
0.709950641,0.168634742498398,-0.0227737426757813,-0.0489151477813721,0.177056520397971
0.714705277,0.134162396192551,0.00783729553222656,-0.0417830944061279,0.140736628961823
0.719459964,0.107029728591442,0.0357875823974609,-0.0298023223876953,0.116723143703008
0.7242146,0.00183919817209244,0.04925537109375,-0.0107467174530029,0.0504476577009669
0.728969287,-0.204517975449562,0.0910835266113281,-0.00608110427856445,0.22396604861271
0.733723923,-0.352325588464737,0.0946388244628906,0.0529558658599854,0.36863823880835
0.738478558,-0.409060329198837,0.0791864395141602,0.116254568099976,0.432569034642221
0.743233246,-0.38502761721611,0.00930690765380859,0.169487953186035,0.420783852856052
0.747987881,-0.366221785545349,-0.0173053741455078,0.118000268936157,0.38515183454236
0.752742569,-0.316946119070053,-0.0128488540649414,0.00525617599487305,0.317250000520787
0.757497204,-0.292042702436447,0.0247917175292969,-0.092310905456543,0.307286303909957
0.762251891,-0.281711339950562,-0.0114297866821289,-0.12737774848938,0.309381657327262
0.767006527,-0.307252585887909,-0.0426015853881836,-0.102836847305298,0.326794222372561
0.771761162,-0.382560133934021,-0.0592985153198242,-0.0214452743530273,0.387722155398461
0.77651585,-0.48111480474472,-0.0426616668701172,0.0641281604766846,0.487241104722098
0.781270485,-0.531581461429596,-0.049901008605957,0.0921061038970947,0.54180484971124
0.786025173,-0.581894755363464,-0.00725173950195313,0.105621099472046,0.591447301709116
0.790779808,-0.594174563884735,-0.00290489196777344,0.116602897644043,0.605514728560707
0.795534496,-0.566508173942566,0.0204057693481445,0.120326042175293,0.579505188063058
0.800289131,-0.475464463233948,-0.0110664367675781,0.154979467391968,0.500207514072085
0.805043819,-0.364248096942902,-0.0541725158691406,0.18951940536499,0.414160527588056
0.809798454,-0.351478666067123,-0.0305290222167969,0.181295394897461,0.396657653536226
0.814553089,-0.412665128707886,-0.0166044235229492,0.161453247070313,0.443435864947314
0.819307777,-0.45232892036438,0.0659923553466797,0.146641492843628,0.480062673601704
0.824062412,-0.401774376630783,0.0885896682739258,0.224493026733398,0.468687420456172
0.8288171,-0.344740569591522,0.0872669219970703,0.270915985107422,0.447053740599332
0.833571735,-0.319181680679321,0.090667724609375,0.269680261611939,0.427580431112324
0.838326423,-0.324878931045532,0.115374565124512,0.259088754653931,0.431259310511765
0.843081058,-0.295280694961548,0.0971651077270508,0.194082021713257,0.366469068447651
0.847835694,-0.237773552536964,0.0791053771972656,0.15578293800354,0.2950631233492
0.852590381,-0.164359644055367,0.0398283004760742,0.181984424591064,0.248432519824922
0.857345016,-0.13436284661293,0.0388374328613281,0.165323495864868,0.216549253118474
0.862099704,-0.0761053711175919,0.0544319152832031,0.13236665725708,0.162098096434713
0.866854339,-0.0277408510446548,0.0532827377319336,0.116355895996094,0.130947697535869
0.871609027,0.029762864112854,0.0141754150390625,0.110029697418213,0.11486211205473
0.876363662,0.0537031888961792,0.00860595703125,0.0848329067230225,0.10077061604019
0.88111835,0.139133989810944,-0.0182600021362305,0.0978052616119385,0.171048425884913
0.885872985,0.242940425872803,-0.0543947219848633,0.0585181713104248,0.255740518253533
0.890627621,0.315268188714981,-0.0641326904296875,0.0338380336761475,0.323499683648135
0.895382308,0.42981880903244,-0.0856409072875977,0.0734119415283203,0.444373589177019
0.900136944,0.574508309364319,-0.0856466293334961,0.08197021484375,0.586612528647631
0.904891631,0.647173464298248,-0.107050895690918,0.0194907188415527,0.656257019224164
0.909646266,0.603441715240479,-0.159157752990723,0.0241303443908691,0.624544127784297
0.914400954,0.686031699180603,-0.163409233093262,0.152277708053589,0.721478045480808
0.919155589,0.794331431388855,-0.158191680908203,0.163372278213501,0.826243022415015
0.923910277,0.719506919384003,-0.145987510681152,0.120179891586304,0.743939356841694
0.928664912,0.610119223594666,-0.124432563781738,0.134442806243896,0.637027313448794
0.9334196,0.516249120235443,-0.0983467102050781,0.215166807174683,0.567874972561547
0.938174235,0.425831168889999,-0.0796222686767578,0.24074912071228,0.495612781505071
0.942928871,0.279580593109131,-0.0231351852416992,0.242569208145142,0.370864349297128
0.947683558,0.0563888847827911,0.0233602523803711,0.187573194503784,0.197253925219946
0.952438194,-0.0202336311340332,0.0457162857055664,0.0999705791473389,0.111774305198625
0.957192881,-0.046524852514267,0.0465250015258789,0.0464122295379639,0.0805185240745381
0.961947516,-0.0419043600559235,-0.0285921096801758,0.0123162269592285,0.0522031950571122
0.966702204,0.00994464755058289,-0.107833862304688,0.00707435607910156,0.108522276000762
0.971456839,0.125229716300964,-0.162702560424805,-0.00746870040893555,0.205451664630408
0.976211527,0.149382054805756,-0.155459403991699,-0.0833784341812134,0.231159226235846
0.980966162,0.0735180079936981,-0.145912170410156,-0.149034738540649,0.221148394217647
0.985720798,0.109674096107483,-0.0700283050537109,-0.161779761314392,0.207617586048559
0.990475485,0.0934092700481415,-0.0185279846191406,-0.195626735687256,0.217573890116956
0.995230121,0.0941688716411591,0.0491580963134766,-0.205496549606323,0.231329044262579
0.999984808,0.0809765160083771,0.104442596435547,-0.158487915992737,0.206358599556147
1.004739444,0.0302418172359467,0.0786428451538086,-0.102632522583008,0.132788174531356
1.009494131,-0.0507532954216003,0.0483598709106445,-0.0142570734024048,0.0715390680163503
1.014248766,-0.0551011860370636,-0.00539207458496094,0.0971140861511231,0.111787123140318
1.019003454,-0.0547998547554016,-0.0729446411132813,0.117517828941345,0.148776291348608
1.023758089,-0.0451085269451141,-0.106738090515137,0.0596227645874023,0.130317586023608
1.028512777,0.019053727388382,-0.128411293029785,0.0901603698730469,0.158055044211239
1.033267412,0.0589580535888672,-0.0835161209106445,0.132575392723084,0.167413348603476
1.038022048,0.0606827735900879,-0.0556468963623047,0.167747020721436,0.186863691085937
1.042776735,-0.0110548138618469,-0.0138177871704102,0.198110938072205,0.198899683095916
1.047531371,-0.143846720457077,0.0323905944824219,0.235461115837097,0.277818225947169
1.052286058,-0.327918350696564,0.0354995727539063,0.327192544937134,0.464591891719714
1.057040694,-0.434765189886093,0.0456533432006836,0.397148013114929,0.590619625819551
1.061795381,-0.500541210174561,0.0722637176513672,0.440829515457153,0.670890609317196
1.066550016,-0.532783150672913,0.0725440979003906,0.415488839149475,0.679522999786553
1.071304704,-0.567470133304596,0.0656957626342773,0.371541619300842,0.681455398609129
1.076059339,-0.573859333992004,0.0541830062866211,0.311406970024109,0.655152374917163
1.080814027,-0.561731934547424,-0.0307712554931641,0.287474513053894,0.631768337375807
1.085568662,-0.533837556838989,-0.150600433349609,0.335145235061646,0.648062771806433
1.09032335,-0.40250763297081,-0.219609260559082,0.375578761100769,0.592705683887931
1.095077985,-0.303572207689285,-0.186067581176758,0.335457682609558,0.489192280057741
1.099832621,-0.236579746007919,-0.110134124755859,0.229576468467712,0.347569930418351
1.104587308,-0.170216798782349,-0.0206279754638672,0.148580312728882,0.226881866375567
1.109341944,-0.104489684104919,0.0349206924438477,0.0659838914871216,0.128418934666535
1.114096631,0.00332283973693848,0.0188694000244141,0.0622837543487549,0.0651641126462624
1.118851266,0.155218422412872,-0.00652503967285156,0.179690361022949,0.237537282639233
1.123605954,0.260699152946472,-0.0222349166870117,0.265506029129028,0.372762513366018
1.128360589,0.294277548789978,0.0143136978149414,0.18260657787323,0.346625619291978
1.133115277,0.123783051967621,0.0149059295654297,-0.0819079875946045,0.149175564763222
1.137869912,-0.012001633644104,-0.0532779693603516,-0.166350960731506,0.175086331178607
1.1426246,-0.0471376776695251,-0.108949661254883,0.0533475875854492,0.130145896765196
1.147379235,-0.0915626883506775,-0.121435165405273,0.211978673934937,0.260893049923189
1.152133923,-0.104625582695007,-0.0816850662231445,0.232105493545532,0.267379735081334
1.156888558,-0.105506777763367,-0.0257101058959961,0.226301789283752,0.251008345542971
1.161643246,-0.115608632564545,0.0535068511962891,0.116285085678101,0.172483507036322
1.166397881,-0.115994453430176,0.0632829666137695,0.0189616680145264,0.13348779698496
1.171152516,-0.0689409971237183,0.0398111343383789,-0.0421073436737061,0.0900600682487892
1.175907204,0.0392802357673645,-0.0356130599975586,-0.124110698699951,0.134961818660388
1.180661839,0.189236760139465,-0.0344581604003906,-0.250487208366394,0.315819185233339
1.185416527,0.250293612480164,-0.00479984283447266,-0.449497580528259,0.514507537204621
1.190171162,0.273010432720184,0.0602512359619141,-0.554503083229065,0.620998049207516
1.19492585,0.307430028915405,0.115320205688477,-0.675375103950501,0.750961719100986
1.199680485,0.325041830539703,0.146280288696289,-0.814521729946137,0.889098286476876
1.204435173,0.3426433801651,0.0987796783447266,-0.915011584758759,0.982042825475339
1.209189808,0.433863282203674,0.00195789337158203,-0.846793532371521,0.951472788605769
1.213944496,0.617235124111176,-0.134305953979492,-0.732248365879059,0.96705995524757
1.218699131,0.813805341720581,-0.205333709716797,-0.713894963264465,1.10185619984342
1.223453819,0.940360188484192,-0.202197074890137,-0.721982598304749,1.20267194755471
1.228208454,1.0164749622345,-0.161102294921875,-0.758702039718628,1.27859457348759
1.232963141,1.08751511573792,-0.0942258834838867,-0.728850662708283,1.31255130665703
1.237717777,1.13951849937439,-0.0089263916015625,-0.692286014556885,1.33335742276201
1.242472464,1.09718060493469,0.0780115127563477,-0.661055445671082,1.2833103203118
1.2472271,0.885412812232971,0.183216094970703,-0.592695593833923,1.08111611424156
1.251981735,0.652578949928284,0.230622291564941,-0.428241193294525,0.813901988503828
1.256736423,0.467341482639313,0.21837043762207,-0.223103642463684,0.562022192358388
1.26149111,0.35991907119751,0.0899753570556641,-0.105372071266174,0.385668998095382
1.266245746,0.341573357582092,-0.0349874496459961,-0.00298607349395752,0.343373552967532
1.271000381,0.273973345756531,-0.12335205078125,0.0439599752426147,0.303660339919949
1.275755069,0.200052440166473,-0.0852508544921875,0.0597013235092163,0.225505953440171
1.280509704,0.155332267284393,-0.0664606094360352,0.075347900390625,0.184993059220056
1.285264391,0.234265327453613,-0.0359525680541992,-0.0253688097000122,0.238361925026284
1.290019027,0.381402909755707,-0.0270624160766602,-0.127562165260315,0.403078974817499
1.294773714,0.487196922302246,-0.0443449020385742,-0.169695496559143,0.517806791177989
1.29952835,0.476165175437927,-0.0662384033203125,-0.180730700492859,0.513599441661394
1.304283037,0.35625284910202,-0.0428647994995117,-0.243984937667847,0.433914891814309
1.309037673,0.268244802951813,-0.019688606262207,-0.316188812255859,0.415112370958727
1.31379236,0.223790526390076,-0.058380126953125,-0.340475022792816,0.411598931085564
1.318546996,0.149158477783203,-0.0991096496582031,-0.279404640197754,0.331870346843478
1.323301683,0.00657236576080322,-0.101534843444824,-0.162042498588562,0.191338160788388
1.328056319,-0.217604219913483,-0.0493888854980469,-0.123968243598938,0.255262578447958
1.332811006,-0.411441385746002,0.0545320510864258,-0.09574294090271,0.425939513584949
1.337565641,-0.546821594238281,0.100665092468262,0.0199710130691528,0.556368724974677
1.342320329,-0.712107479572296,0.101347923278809,0.179857730865479,0.741429205904255
1.347074964,-0.940437316894531,0.0735874176025391,0.276765704154968,0.983075129394285
1.351829652,-1.09631443023682,0.00102043151855469,0.382485747337341,1.16112088868565
1.356584287,-1.17331671714783,-0.00922107696533203,0.461490869522095,1.26084533930662
1.361338975,-1.1839292049408,0.0494499206542969,0.428657650947571,1.2601115183508
1.36609361,-1.10011160373688,0.112387657165527,0.403542041778564,1.17716723775447
1.370848246,-0.920227944850922,0.165342330932617,0.390601873397827,1.01327556981538
1.375602933,-0.740052938461304,0.248729705810547,0.309148073196411,0.83971265885353
1.380357569,-0.535917043685913,0.203354835510254,0.192816495895386,0.604763150272755
1.385112256,-0.31498658657074,0.139434814453125,0.127192616462708,0.367201006103868
1.389866944,-0.150718629360199,0.0523509979248047,0.0312536954879761,0.162583903574724
1.394621579,0.000392794609069824,-0.0221319198608398,-0.0616166591644287,0.0654720463321327
1.399376214,0.150554060935974,-0.0580310821533203,0.0074608325958252,0.161523359868538
1.404130902,0.247510671615601,-0.0390748977661133,0.0546022653579712,0.256456209870731
1.408885537,0.23933082818985,0.0319089889526367,-0.0622495412826538,0.249344007924634
1.413640225,0.233573973178864,0.0667095184326172,-0.213625311851501,0.323485292802816
1.41839486,0.253917157649994,0.0537786483764648,-0.285428166389465,0.385791788583821
1.423149548,0.250480234622955,-0.00886058807373047,-0.333000600337982,0.416783226369824
1.427904183,0.202313542366028,-0.068608283996582,-0.380313158035278,0.436206332178263
1.432658871,0.204604864120483,-0.0661430358886719,-0.327918410301209,0.392133313342291
1.437413506,0.197470903396606,-0.0494470596313477,-0.271356582641602,0.33922583088171
1.442168194,0.171443104743958,0.0240621566772461,-0.307826936244965,0.353170140620876
1.446922829,0.164517462253571,0.0542831420898438,-0.325133681297302,0.368408150853692
1.451677516,0.167025983333588,0.0368270874023438,-0.349510729312897,0.389116516457378
1.456432152,0.107875108718872,-0.00655746459960938,-0.359645903110504,0.375533240935145
1.461186839,0.0707014799118042,-0.0353202819824219,-0.301166534423828,0.311363939848364
1.465941475,0.0199195742607117,-0.0543498992919922,-0.229175984859467,0.236373291697865
1.470696162,-0.0822333693504334,0.0003204345703125,-0.179355621337891,0.197309068769125
1.475450798,-0.292444050312042,0.0830192565917969,-0.17293906211853,0.349747964589365
1.480205485,-0.482061386108398,0.119993209838867,-0.166829466819763,0.52403589703717
1.484960121,-0.565992832183838,0.0689249038696289,-0.0803216099739075,0.575803863729413
1.489714808,-0.540403246879578,-0.0741958618164063,0.128641128540039,0.560436646821676
1.494469444,-0.446562111377716,-0.194747924804688,0.352565765380859,0.601371010651866
1.499224131,-0.323042571544647,-0.224135398864746,0.477705001831055,0.618704492329614
1.503978766,-0.20086669921875,-0.165515899658203,0.474197745323181,0.540931091327064
1.508733454,-0.0515468120574951,-0.000634193420410156,0.373907089233398,0.377444018913504
1.513488089,0.141568124294281,0.134374618530273,0.25579559803009,0.321759941404969
1.518242777,0.300047338008881,0.192307472229004,0.16724169254303,0.393675440745269
1.522997412,0.440893530845642,0.202300071716309,0.081629753112793,0.491910399515213
1.5277521,0.488573670387268,0.155251502990723,0.00117754936218262,0.512648658633831
1.532506735,0.496068060398102,0.0706110000610352,-0.0883444547653198,0.508796792997495
1.537261423,0.487311840057373,-0.044194221496582,-0.106067538261414,0.500675824607728
1.542016058,0.523991584777832,-0.181779861450195,-0.0739229321479797,0.559531678141811
1.546770746,0.496488511562347,-0.228083610534668,-0.0727866888046265,0.551199489817495
1.551525381,0.440927147865295,-0.183874130249023,-0.123698234558105,0.493485256853993
1.556280069,0.357547044754028,-0.0593910217285156,-0.157422959804535,0.395157147155301
1.561034704,0.287028074264526,0.0260648727416992,-0.148175299167633,0.324068530237759
1.565789391,0.281483173370361,0.0514726638793945,-0.0608022212982178,0.292539095049341
1.570544027,0.247695922851563,0.0126066207885742,0.0660555958747864,0.256662305045691
1.575298714,0.321022987365723,-0.0733928680419922,0.206089496612549,0.388477994371182
1.58005335,0.424590945243835,-0.189535140991211,0.252590954303741,0.529153314881129
1.584808037,0.465767741203308,-0.262029647827148,0.201553344726563,0.571159238616094
1.589562673,0.454795837402344,-0.319733619689941,0.115469336509705,0.567804551718743
1.59431736,0.420512437820435,-0.350894927978516,0.134568274021149,0.563973918914486
1.599071996,0.291977047920227,-0.336767196655273,0.165508210659027,0.475453161784434
1.603826683,0.117382884025574,-0.180447578430176,0.175020575523376,0.277438771407332
1.608581319,-0.0578556656837463,0.0267238616943359,0.156163334846497,0.168666623805501
1.613336006,-0.131866276264191,0.156218528747559,0.177971243858337,0.271047426072116
1.618090641,-0.126878142356873,0.213446617126465,0.185400664806366,0.309888573331294
1.622845329,-0.0341929793357849,0.163432121276855,0.152495861053467,0.226128737093162
1.627599964,0.0931644439697266,0.059290885925293,0.098442554473877,0.147939039152404
1.632354652,0.235926985740662,-0.0487079620361328,-0.000261127948760986,0.240902628367134
1.637109287,0.296938419342041,-0.113107681274414,-0.131355166435242,0.343831284489725
1.641863975,0.362425327301025,-0.12952995300293,-0.173648118972778,0.422236658542316
1.64661861,0.361457943916321,-0.0723114013671875,-0.0898674726486206,0.379416587181097
1.651373298,0.285128355026245,0.0199661254882813,-0.101689636707306,0.303377005095393
1.656127933,0.117202043533325,0.147060394287109,-0.213316977024078,0.284371607694859
1.660882621,-0.0160971879959106,0.145020484924316,-0.234326660633087,0.276041743931083
1.665637256,-0.0748944878578186,0.0576467514038086,-0.179709911346436,0.203046754455818
1.670391944,-0.066789448261261,-0.0954065322875977,-0.0664429068565369,0.134081679112899
1.675146579,-0.0112478733062744,-0.185497283935547,-0.0608824491500855,0.195556717133142
1.679901266,0.0273424386978149,-0.232139587402344,-0.0672299265861511,0.243220599501879
1.684655902,0.0536836385726929,-0.257036209106445,-0.0592133402824402,0.26917608643715
1.689410589,-0.0888144969940186,-0.170205116271973,-0.103290736675262,0.21800635945856
1.694165225,-0.299158215522766,0.0131978988647461,-0.187222957611084,0.353160386093701
1.698919912,-0.448790967464447,0.145288467407227,-0.180284917354584,0.504999725410583
1.703674548,-0.492860019207001,0.174266815185547,-0.109326243400574,0.534071295712211
1.708429235,-0.538668990135193,0.169780731201172,-0.0937327146530151,0.572516898804478
1.713183871,-0.662278532981873,0.167733192443848,-0.0976923704147339,0.690138448670465
1.717938558,-0.787446439266205,0.158638954162598,-0.0639978051185608,0.805812590836617
1.722693246,-0.760250687599182,0.069025993347168,-0.0640065670013428,0.766056483799915
1.727447881,-0.605612337589264,0.00155925750732422,-0.116214394569397,0.6166640254056
1.732202569,-0.452559292316437,-0.0202436447143555,-0.158367455005646,0.4798957897484
1.736957204,-0.289133012294769,-0.0252275466918945,-0.185993194580078,0.344714079116072
1.741711891,-0.19614589214325,0.0102024078369141,-0.199269533157349,0.279795723654043
1.746466527,-0.158695220947266,0.0785913467407227,-0.276697039604187,0.328514877379614
1.751221214,-0.126570403575897,0.167801856994629,-0.318019688129425,0.381200803134186
1.75597585,-0.0545639991760254,0.182750701904297,-0.257136642932892,0.320147313265928
1.760730537,0.0238305330276489,0.173879623413086,-0.2301966547966,0.289469372511504
1.765485173,0.00433385372161865,0.181715965270996,-0.260756850242615,0.317857844438201
1.77023986,-0.0529273748397827,0.184759140014648,-0.288959980010986,0.347037630343358
1.774994496,-0.0931291580200195,0.130866050720215,-0.231891810894012,0.282086467708623
1.779749183,-0.168625056743622,0.00864219665527344,-0.147133231163025,0.223958221633612
1.784503819,-0.262577950954437,-0.107792854309082,-0.0158096551895142,0.284282298015091
1.789258506,-0.306052982807159,-0.149686813354492,0.0312847495079041,0.342130539310881
1.794013141,-0.323274850845337,-0.0820732116699219,0.0139736533164978,0.333823163141655
1.798767829,-0.338144481182098,0.00870513916015625,0.0112207531929016,0.338442572534727
1.803522464,-0.362596869468689,0.0678997039794922,-0.0128042101860046,0.369121670113641
1.808277152,-0.370493113994598,0.0862913131713867,-0.0627476572990418,0.385549746132422
1.813031787,-0.347547948360443,0.0452280044555664,-0.0933917760848999,0.362708109417033
1.817786475,-0.306035339832306,-0.0144319534301758,-0.100344121456146,0.322389288309788
1.82254111,-0.22458153963089,-0.0901803970336914,-0.0718873739242554,0.252462208026986
1.827295798,-0.231690645217896,-0.120194435119629,0.00359296798706055,0.261036715299146
1.832050433,-0.208171725273132,-0.138076782226563,0.095155656337738,0.267311174338634
1.836805121,-0.156648635864258,-0.0869951248168945,0.0889453291893005,0.200045540926642
1.841559756,-0.153161287307739,0.00399112701416016,-0.0450729131698608,0.159705593284095
1.846314444,-0.168533146381378,0.0965852737426758,-0.121135771274567,0.22892359340059
1.851069079,-0.162390232086182,0.126735687255859,-0.113792479038239,0.235332212386844
1.855823766,-0.134985327720642,0.0926046371459961,-0.0855188369750977,0.184689276890577
1.860578454,-0.162367403507233,0.0445346832275391,-0.0790210366249085,0.185986117657025
1.865333089,-0.201546788215637,-0.0149726867675781,-0.103546142578125,0.227083889415098
1.870087777,-0.159953057765961,-0.0241279602050781,-0.175438702106476,0.238633353387877
1.874842412,-0.149785399436951,-0.00945568084716797,-0.215933799743652,0.262968594430023
1.8795971,-0.211055934429169,0.0620632171630859,-0.241963744163513,0.327021259052111
1.884351735,-0.331290364265442,0.130637168884277,-0.272651851177216,0.448506864272545
1.889106423,-0.367703974246979,0.182072639465332,-0.260666310787201,0.486110670833613
1.893861058,-0.411167621612549,0.13348388671875,-0.192281186580658,0.47312663821532
1.898615746,-0.369219124317169,0.0687475204467773,-0.0915576219558716,0.38656407161987
1.903370381,-0.363464891910553,-0.014404296875,-0.0960882306098938,0.376227536846724
1.908125069,-0.379412114620209,-0.0612421035766602,-0.164677083492279,0.418118033333407
1.912879704,-0.40967732667923,-0.0530929565429688,-0.180569112300873,0.450843185982265
1.917634391,-0.451813578605652,-0.00938129425048828,-0.172805428504944,0.483823557317166
1.922389027,-0.474934458732605,0.0150270462036133,-0.117799878120422,0.489556292467398
1.927143714,-0.474359512329102,0.0131626129150391,-0.0847254395484924,0.482046264815463
1.931898402,-0.48588365316391,0.0113525390625,-0.0877378582954407,0.493872186231765
1.936653037,-0.51177453994751,-0.0259923934936523,-0.10044276714325,0.52218534423077
1.941407725,-0.511683225631714,-0.0463714599609375,-0.0776334404945374,0.519612342785276
1.946162308,-0.412274122238159,-0.064173698425293,-0.021807849407196,0.417808326547703
1.950917048,-0.361486494541168,0.00362014770507813,0.0075107216835022,0.361582635292786
1.955671683,-0.285322368144989,0.0352907180786133,0.0176267027854919,0.288036437273927
1.960426371,-0.221895098686218,0.0501194000244141,0.0798171162605286,0.241081233462749
1.965181006,-0.147307455539703,0.0696020126342773,0.0749480724334717,0.179335273111055
1.969935694,-0.089945912361145,0.112665176391602,0.0841801762580872,0.166943137614794
1.974690329,0.0333186984062195,0.10081958770752,0.207103610038757,0.232737255762984
1.979445016,0.205376863479614,0.0392541885375977,0.257830083370209,0.331959183125212
1.984199652,0.373791098594666,-0.0170698165893555,0.210982143878937,0.429563300414216
1.988954287,0.531656622886658,-0.0444793701171875,0.202482402324677,0.570645513674155
1.993708975,0.679170608520508,-0.102541923522949,0.248625814914703,0.730480908306236
1.998463662,0.837773561477661,-0.167285919189453,0.358561336994171,0.926507070376191
2.00321835,1.04537975788116,-0.290868759155273,0.46545547246933,1.18070837639608
2.007972985,1.24949586391449,-0.396896362304688,0.545721232891083,1.42006278043553
2.012727673,1.46214020252228,-0.506889343261719,0.625718176364899,1.66922557324575
2.017482308,1.66443932056427,-0.547292709350586,0.705605506896973,1.88885327458543
2.022236996,1.82332646846771,-0.547176361083984,0.785427272319794,2.05932449624817
2.026991631,1.9629499912262,-0.54485034942627,0.80111438035965,2.18902234382015
2.031746319,2.04799795150757,-0.561699867248535,0.83380651473999,2.28145472325643
2.036500954,2.03391456604004,-0.507429122924805,0.755386710166931,2.22820597311804
2.041255641,1.99277329444885,-0.347043037414551,0.630706548690796,2.11881453257427
2.046010277,1.83939456939697,-0.107516288757324,0.457593142986298,1.89850562779869
2.050764964,1.60069024562836,0.0349559783935547,0.224260687828064,1.61670159243453
2.0555196,1.349280834198,0.0936441421508789,0.0882567763328552,1.35540298563264
2.060274287,1.04902827739716,0.0470895767211914,0.0169572830200195,1.05022155017979
2.065028975,0.726212382316589,-0.0925226211547852,-0.0254878401756287,0.732526101686559
2.06978361,0.421316504478455,-0.174591064453125,-0.0246611833572388,0.456725093133056
2.074538298,0.136556625366211,-0.15626049041748,-0.0451492667198181,0.212375867466755
2.079292933,-0.152271628379822,-0.0878629684448242,-0.0629768967628479,0.186742174024126
2.084047621,-0.373781740665436,-0.00766277313232422,-0.0353488326072693,0.37552769233927
2.088802256,-0.554485082626343,0.0222597122192383,-0.0530499219894409,0.557461654166734
2.093556944,-0.692178010940552,0.0235185623168945,-0.120849192142487,0.703041996501321
2.098311579,-0.767659068107605,0.0558490753173828,-0.186285376548767,0.791910225705893
2.103066266,-0.821578204631805,0.135883331298828,-0.232738792896271,0.864651589815054
2.107820902,-0.901710569858551,0.206223487854004,-0.281763672828674,0.966954417779457
2.112575589,-0.88403844833374,0.290787696838379,-0.319087982177734,0.983818379140761
2.117330277,-0.766617119312286,0.30601978302002,-0.332815647125244,0.890009084332111
2.122084912,-0.654719471931458,0.240138053894043,-0.361117005348206,0.785321184870166
2.1268396,-0.56010115146637,0.117177963256836,-0.451752454042435,0.729057099739338
2.131594235,-0.496927559375763,0.023193359375,-0.430324852466583,0.657764707047009
2.136348923,-0.424439370632172,-0.0251903533935547,-0.325662732124329,0.535574036283881
2.141103558,-0.36421525478363,-0.0137510299682617,-0.228582680225372,0.430223063469763
2.145858246,-0.261329829692841,0.0525894165039063,-0.227209270000458,0.350261301016329
2.150612881,-0.108780980110168,0.0854005813598633,-0.247482597827911,0.283503434120265
2.155367569,0.064674973487854,0.0871477127075195,-0.213020443916321,0.23907171633657
2.160122256,0.156520962715149,0.0602645874023438,-0.188355803489685,0.252207337268955
2.164876891,0.140912175178528,0.0501441955566406,-0.173416018486023,0.229006106750696
2.169631579,0.0515704154968262,0.00183486938476563,-0.180121779441834,0.187367899944113
2.174386214,-0.0684324502944946,-0.0606889724731445,-0.136971712112427,0.164703981591715
2.179140902,-0.13071221113205,-0.113537788391113,-0.0295050144195557,0.175633303811301
2.183895537,-0.116502523422241,-0.156715393066406,0.0323712229728699,0.197940517490653
2.188650225,-0.114318430423737,-0.113864898681641,0.00603878498077393,0.161463263965433
2.19340486,-0.0644382834434509,-0.0353021621704102,-0.0965052843093872,0.121292229457126
2.198159548,0.00436580181121826,0.0836849212646484,-0.170222043991089,0.189730784357809
2.202914235,0.0753623247146606,0.137973785400391,-0.210545420646667,0.262765331806525
2.207668871,0.0507388114929199,0.151577949523926,-0.253440082073212,0.299636741697123
2.212423558,-0.0118732452392578,0.0839929580688477,-0.236904323101044,0.251633561477062
2.217178194,-0.110049486160278,-0.0144681930541992,-0.227874279022217,0.253469732027889
2.221932881,-0.200862765312195,-0.0864391326904297,-0.199945509433746,0.296303528314895
2.226687569,-0.246143996715546,-0.105714797973633,-0.134040713310242,0.299548657907905
2.231442204,-0.248456656932831,-0.0580873489379883,-0.0945572257041931,0.272113798646367
2.236196839,-0.269974589347839,0.0539064407348633,-0.188802659511566,0.333824246400522
2.240951527,-0.327347934246063,0.182390213012695,-0.297262191772461,0.478317541509141
2.245706214,-0.33460921049118,0.253344535827637,-0.322306215763092,0.529176789266854
2.25046085,-0.322853803634644,0.223917961120605,-0.27132111787796,0.477481916767862
2.255215537,-0.382883012294769,0.170710563659668,-0.220644235610962,0.473735555301968
2.259970173,-0.457249104976654,0.146297454833984,-0.19414347410202,0.517852660347762
2.26472486,-0.519717156887054,0.15301513671875,-0.218087136745453,0.584021878392968
2.269479496,-0.534614861011505,0.157382965087891,-0.239843606948853,0.606718553456578
2.274234183,-0.504430711269379,0.152239799499512,-0.235485911369324,0.577131625781176
2.278988871,-0.431651711463928,0.0874671936035156,-0.197901427745819,0.482844369409489
2.283743506,-0.375949919223785,0.0371799468994141,-0.160402774810791,0.410426291047266
2.288498194,-0.330016613006592,0.0323781967163086,-0.146916806697845,0.362689758020866
2.293252829,-0.25324285030365,0.0132761001586914,-0.121579825878143,0.281229177230778
2.298007516,-0.169551491737366,-0.00338077545166016,-0.0772766470909119,0.186362062069065
2.302762152,-0.093330442905426,-0.00327301025390625,-0.0307137370109558,0.0983087880620208
2.307516839,0.0281474590301514,-0.000782012939453125,-0.0391572117805481,0.0482304699180738
2.312271527,0.142262041568756,0.00409698486328125,-0.040529191493988,0.147979353693131
2.317026162,0.21095073223114,-0.00776290893554688,-0.0299662351608276,0.213209871801729
2.32178085,0.212815523147583,-0.00527381896972656,0.0233802795410156,0.214160915039418
2.326535485,0.143162310123444,-0.012354850769043,-0.00211811065673828,0.143710040603155
2.331290173,0.0784944295883179,0.0235538482666016,-0.0562268495559692,0.0993862055596806
2.336044808,0.0568892955780029,0.0570135116577148,-0.084028422832489,0.116394623186045
2.340799496,0.0139012336730957,0.0689201354980469,-0.0856289267539978,0.110795047144467
2.345554183,-0.0288845896720886,0.0712528228759766,-0.0563012957572937,0.0952949116808997
2.350308819,-0.119302332401276,0.0377731323242188,-0.0533854961395264,0.136050972947755
2.355063506,-0.140386879444122,0.00915431976318359,-0.01234370470047,0.141225509509145
2.359818141,-0.163867950439453,-0.0384950637817383,0.0524365901947022,0.176307036467732
2.364572829,-0.187420010566711,-0.0359086990356445,0.0886169075965881,0.210401167628036
2.369327464,-0.242127239704132,-0.0118284225463867,0.110508382320404,0.266416242653767
2.374082152,-0.280163466930389,-0.0140476226806641,0.0918068289756775,0.295156564812648
2.378836839,-0.282433271408081,0.0219497680664063,0.0278434753417969,0.284649967917703
2.383591475,-0.284753739833832,0.0459518432617188,-0.0289477705955505,0.289886594500256
2.388346162,-0.306236326694489,0.0245647430419922,0.0120492577552795,0.307456174113492
2.393100798,-0.287153422832489,-0.018254280090332,0.0338144898414612,0.289713180075172
2.397855485,-0.253961443901062,-0.0156011581420898,0.00539737939834595,0.254497431869275
2.402610121,-0.247271060943604,-0.053532600402832,-0.0229116678237915,0.254034764173198
2.407364808,-0.221651315689087,-0.0245208740234375,-0.0319642424583435,0.225282693089177
2.412119496,-0.215282499790192,-0.0337553024291992,-0.0339142084121704,0.220536048505057
2.416874131,-0.225681185722351,-0.00714111328125,0.0046536922454834,0.225842090717071
2.421628819,-0.233716130256653,0.00270748138427734,0.043185830116272,0.23768798017658
2.426383454,-0.229850649833679,0.0244846343994141,0.069696843624115,0.241430049003437
2.431138141,-0.228502333164215,0.0104131698608398,0.0818334817886353,0.242937171115685
2.435892829,-0.193843424320221,-0.00600624084472656,0.0652919411659241,0.204632318225857
2.440647464,-0.137816429138184,-0.0176181793212891,0.0536677241325378,0.148942918584816
2.445402152,-0.100999772548676,0.0328836441040039,0.025288999080658,0.109187094379073
2.450156787,-0.104851245880127,0.0450878143310547,0.00168466567993164,0.114146979207597
2.454911475,-0.0729776620864868,0.0644493103027344,0.00909614562988281,0.0977864644387332
2.45966611,-0.0817521214485169,0.0861644744873047,-0.016947865486145,0.119978982199146
2.464420798,-0.114452362060547,0.0672445297241211,-0.0309394598007202,0.1363026783736
2.469175485,-0.135166704654694,0.0435886383056641,-0.00190597772598267,0.142033940266554
2.473930121,-0.17741721868515,0.0295429229736328,0.0222641229629517,0.181232847340403
2.478684808,-0.19217050075531,0.0249233245849609,0.0840834379196167,0.211236119073647
2.483439444,-0.180802464485168,0.0298452377319336,0.152489542961121,0.238397420480335
2.488194131,-0.174494326114655,0.0560884475708008,0.120833873748779,0.219533616656415
2.492948819,-0.18019837141037,0.0299167633056641,0.134614050388336,0.226908369937273
2.497703454,-0.164581835269928,0.0134620666503906,0.19100695848465,0.252491714574704
2.502458141,-0.149165987968445,-0.00523090362548828,0.199600040912628,0.24923489051829
2.507212777,-0.13632196187973,-0.00953483581542969,0.160792052745819,0.211018185498265
2.511967464,-0.102239668369293,-0.00668239593505859,0.146038889884949,0.178395520018088
2.516722152,-0.087414562702179,-0.00385856628417969,0.138572633266449,0.16388584135483
2.521476787,-0.0324047803878784,0.0108146667480469,0.124020159244537,0.128639133656514
2.526231475,-0.0181980133056641,0.0253658294677734,0.0929911732673645,0.0980915454996112
2.53098611,0.0077555775642395,0.00894737243652344,0.0646506547927856,0.065726034583023
2.535740798,-0.0115335583686829,-0.038182258605957,0.0436699986457825,0.0591436946987474
2.540495433,-0.0258621573448181,-0.0683135986328125,0.094049334526062,0.119083484436291
2.545250121,-0.0376664996147156,-0.117184638977051,0.113247454166412,0.167260248357405
2.550004808,-0.0919454097747803,-0.0968608856201172,0.0920440554618835,0.162197711721331
2.554759444,-0.119656980037689,-0.112299919128418,0.0971580743789673,0.190705941504239
2.559514131,-0.113961338996887,-0.0849018096923828,0.109388887882233,0.179336089137454
2.564268766,-0.0584828853607178,-0.055363655090332,0.135805547237396,0.157887709608838
2.569023454,-0.00342255830764771,-0.0403165817260742,0.0908898115158081,0.0994891878790032
2.573778141,0.00841391086578369,-0.00404548645019531,0.124758958816528,0.125107784176926
2.578532777,-0.00361484289169312,0.041407585144043,0.118109345436096,0.125209714782583
2.583287464,-0.10811048746109,0.0841064453125,0.0689003467559815,0.153326545077079
2.5880421,-0.190460503101349,0.0742626190185547,0.0532877445220947,0.211257481622228
2.592796787,-0.250854969024658,0.038416862487793,0.127883076667786,0.28417978834848
2.597551475,-0.284585058689117,-0.0374679565429688,0.213714838027954,0.357863850353607
2.60230611,-0.313306987285614,-0.0652837753295898,0.220719218254089,0.388767556400954
2.607060798,-0.346660614013672,-0.0406694412231445,0.137628197669983,0.375192091536624
2.611815433,-0.349062323570251,-0.00913143157958984,0.0481683015823364,0.352488402725937
2.616570121,-0.301764965057373,0.00555038452148438,-0.0239579677581787,0.302765396179147
2.621324808,-0.214723587036133,0.0391111373901367,-0.067036509513855,0.228319498741161
2.626079444,-0.156899929046631,0.0700445175170898,-0.114701330661774,0.206591910356193
2.630834131,-0.120932519435883,0.0912408828735352,-0.162055730819702,0.221836951061269
2.635588766,-0.0995837450027466,0.107538223266602,-0.221017122268677,0.265197963921363
2.640343454,-0.107024192810059,0.0478029251098633,-0.206073760986328,0.237077397621018
2.645098141,-0.133523285388947,0.026555061340332,-0.191393256187439,0.234872343067202
2.649852777,-0.140846490859985,0.0149879455566406,-0.162680745124817,0.215702103220962
2.654607464,-0.133866429328918,0.00589656829833984,-0.115287959575653,0.176766241239918
2.6593621,-0.131707668304443,0.0372161865234375,-0.0730202198028565,0.155125455453314
2.664116787,-0.143889725208282,0.0777788162231445,-0.0548626184463501,0.172521604955375
2.668871475,-0.141758739948273,0.125116348266602,-0.0201712846755981,0.190148683089722
2.67362611,-0.10424417257309,0.160223960876465,0.0354864597320557,0.194416701902655
2.678380798,-0.0790373682975769,0.142852783203125,0.0883224010467529,0.185619691258631
2.683135485,-0.0445687174797058,0.132740020751953,0.131299018859863,0.191952379616866
2.687890121,-0.0152018070220947,0.0942478179931641,0.192908406257629,0.215238006258347
2.692644808,-0.0193093419075012,0.029973030090332,0.239835262298584,0.242471000863046
2.697399444,-0.0588716864585876,0.0160408020019531,0.260395765304565,0.267449317411532
2.702154131,-0.0720182061195374,-0.01202392578125,0.261927247047424,0.271913735492916
2.706908819,-0.120594680309296,-0.0422353744506836,0.277743697166443,0.305726127587381
2.711663454,-0.133189737796783,-0.0413627624511719,0.29592502117157,0.327142174791576
2.716418141,-0.119606792926788,-0.0428867340087891,0.271437764167786,0.299705716803298
2.721172777,-0.0801272988319397,-0.0562677383422852,0.209331393241882,0.231097543459134
2.725927464,-0.0836411714553833,-0.0553112030029297,0.145437002182007,0.176655303752107
2.730682152,-0.0610902309417725,-0.068598747253418,0.0845098495483398,0.124818745034311
2.735436787,-0.0268511772155762,-0.112625122070313,0.045491099357605,0.124397925866867
2.740191475,0.00475591421127319,-0.120699882507324,0.00920689105987549,0.121143911115067
2.744946162,0.0432872176170349,-0.107364654541016,-0.0385911464691162,0.122025525360627
2.749700798,0.0673444867134094,-0.117870330810547,-0.0741477012634277,0.154682178607398
2.754455485,0.117383480072021,-0.128298759460449,-0.0761544704437256,0.189839291089788
2.759210121,0.176522433757782,-0.0983057022094727,-0.0496928691864014,0.208071050256024
2.763964808,0.209052860736847,-0.0828037261962891,-0.0660768747329712,0.23436234558633
2.768719496,0.203439891338348,-0.0389699935913086,-0.0538219213485718,0.214016936259534
2.773474131,0.188386499881744,-0.0334720611572266,-0.0155038833618164,0.191964118040597
2.778228819,0.154600977897644,0.0336589813232422,-0.00360023975372314,0.158263549552354
2.782983506,0.0999032258987427,0.0741138458251953,0.029577374458313,0.127860618518069
2.787738089,0.0504970550537109,0.128464698791504,0.0814330577850342,0.160263764790766
2.792492829,0.0252995491027832,0.165748596191406,0.130472898483276,0.212451974721002
2.797247464,0.00984632968902588,0.164754867553711,0.164878249168396,0.233293706815725
2.802002152,-0.0267382860183716,0.142414093017578,0.213191509246826,0.25777379510757
2.806756839,-0.00610107183456421,0.0846643447875977,0.208981394767761,0.225562624818303
2.811511475,0.00246775150299072,0.0558605194091797,0.242851614952087,0.249205526244866
2.816266162,0.0179861783981323,0.00593757629394531,0.210150122642517,0.211001970304262
2.821020798,0.0403960943222046,-0.0364618301391602,0.196847200393677,0.204230579973749
2.825775485,0.086368203163147,-0.0619230270385742,0.174360871315002,0.204195105820334
2.830530173,0.0940174460411072,-0.0824518203735352,0.135649800300598,0.184495125042897
2.835284808,0.101745128631592,-0.114694595336914,0.085476279258728,0.175536650633632
2.840039496,0.116541385650635,-0.139562606811523,0.0713992118835449,0.195339354066172
2.844794183,0.117084801197052,-0.112035751342773,0.0811715126037598,0.181244792224978
2.849548819,0.101128160953522,-0.0895223617553711,0.0175368785858154,0.136193613296052
2.854303506,0.075954794883728,-0.0173883438110352,-0.0336692333221436,0.0848828760046507
2.859058194,0.0439080595970154,0.0541515350341797,-0.029961109161377,0.075881318559399
2.863812829,0.0477526783943176,0.110837936401367,0.0260566473007202,0.123467871562195
2.868567516,0.00882220268249512,0.129083633422852,0.00577986240386963,0.129513792652458
2.873322152,-0.0415626764297485,0.116326332092285,-0.05705726146698,0.136069109999882
2.878076839,-0.112853527069092,0.113173484802246,-0.0364065170288086,0.163919464116948
2.882831527,-0.183472812175751,0.0981998443603516,0.0313390493392944,0.210446236016628
2.887586162,-0.229734480381012,0.0572538375854492,0.0937292575836182,0.254639170438035
2.89234085,-0.273216307163239,0.0617151260375977,0.124838829040527,0.306660464549905
2.897095485,-0.333049714565277,0.0566425323486328,0.0870332717895508,0.348862837288915
2.901850173,-0.35700660943985,0.0682363510131836,0.0400843620300293,0.365672906930068
2.90660486,-0.347815275192261,0.0251903533935547,0.0148559808731079,0.349042575811121
2.911359496,-0.315186083316803,0.0157508850097656,-0.0268517732620239,0.316719710820929
2.916114183,-0.252182304859161,-0.000698089599609375,-0.0564404726028442,0.258421998213775
2.920868871,-0.151932179927826,-0.0217256546020508,-0.0597808361053467,0.164709258182299
2.925623506,-0.0715692639350891,-0.0591878890991211,-0.16504955291748,0.189385112071885
2.930378194,-0.056050181388855,-0.0346393585205078,-0.226733267307282,0.236113283184727
2.935132881,-0.095308780670166,-0.0387477874755859,-0.214434027671814,0.237838405079254
2.939887516,-0.101093769073486,-0.0333137512207031,-0.150127530097961,0.184032691278459
2.944642204,-0.132908463478088,-0.091984748840332,-0.098236083984375,0.189145927473764
2.949396839,-0.138344526290894,-0.119322776794434,-0.0705139636993408,0.195829906023513
2.954151527,-0.136617302894592,-0.125087738037109,0.0044865608215332,0.185287233465878
2.958906214,-0.118309855461121,-0.107076644897461,0.0693826675415039,0.17400167912093
2.96366085,-0.0835534334182739,-0.0465297698974609,0.0959506034851074,0.135472189145407
2.968415537,-0.0538671612739563,-0.000731468200683594,0.0820592641830444,0.098162767624521
2.973170225,0.0325930118560791,0.0446662902832031,0.0754987001419067,0.0935811713574447
2.97792486,0.0662266612052918,0.0896816253662109,0.0499845743179321,0.122177011964079
2.982679548,0.125778317451477,0.139068603515625,-0.00150501728057861,0.187516737124251
2.987434235,0.196725249290466,0.13825511932373,0.00407350063323975,0.240482629591046
2.992188871,0.269545912742615,0.120835304260254,-0.0236389636993408,0.296335908112224
2.996943558,0.322877943515778,0.070338249206543,-0.0891159772872925,0.342256180540671
3.001698246,0.321478247642517,0.0321044921875,-0.118502140045166,0.344124569482048
3.006452881,0.303765177726746,0.0273857116699219,-0.10498046875,0.322558768632941
3.011207569,0.279280245304108,0.0274343490600586,-0.0821038484573364,0.292388681136902
3.015962204,0.229091644287109,0.0156106948852539,-0.071354866027832,0.240454137379297
3.020716891,0.208033442497253,-0.0151185989379883,-0.0488439798355103,0.214224694181781
3.025471579,0.203907668590546,-0.0171346664428711,-0.0170140266418457,0.205332440707039
3.030226214,0.226120054721832,-0.00730705261230469,0.00756227970123291,0.226364441199503
3.034980902,0.257842719554901,0.0142793655395508,0.017714262008667,0.25884467038398
3.039735589,0.296630799770355,0.0285396575927734,-0.00299537181854248,0.298015629926091
3.044490225,0.34712153673172,0.0687761306762695,-0.0331308841705322,0.355416900132382
3.049244912,0.413969814777374,0.0849494934082031,0.00567793846130371,0.422634195211763
3.0539996,0.437737882137299,0.112826347351074,0.04658043384552,0.454438087017219
3.058754235,0.452087461948395,0.0929975509643555,0.0135557651519775,0.461752505683689
3.063508923,0.435757994651794,0.0875463485717773,-0.0239847898483276,0.445111967032198
3.06826361,0.43410712480545,0.0370388031005859,-0.0517851114273071,0.438751144166619
3.073018246,0.461459934711456,-0.0106992721557617,-0.0463578701019287,0.463906022690967
3.077772933,0.439256131649017,-0.10079288482666,-0.0244020223617554,0.451332043531459
3.082527569,0.448563516139984,-0.16645336151123,0.0542916059494019,0.481522095076456
3.087282204,0.448713898658752,-0.19841194152832,0.0874074697494507,0.498348800699446
3.092036944,0.442050457000732,-0.192192077636719,0.0326124429702759,0.483125214284418
3.096791631,0.464177548885345,-0.164714813232422,0.0353591442108154,0.493803640799377
3.101546266,0.48395437002182,-0.118523597717285,0.0287339687347412,0.499084478258255
3.106300954,0.470598220825195,-0.0419101715087891,-0.0204471349716187,0.472902985027884
3.111055589,0.443344116210938,-0.00865840911865234,-0.0289392471313477,0.444371976447494
3.115810277,0.41883784532547,-0.00179767608642578,0.0172280073165894,0.419195868959004
3.120564964,0.352097153663635,0.0168352127075195,0.0417255163192749,0.354960348091236
3.1253196,0.2387775182724,0.0447702407836914,0.0304478406906128,0.244839026086278
3.130074287,0.169236063957214,0.0202751159667969,0.0951110124588013,0.195187167513993
3.134828975,0.164277255535126,-0.00400543212890625,0.159225821495056,0.228814165652976
3.13958361,0.128585338592529,-0.0115060806274414,0.125733017921448,0.180209242238004
3.144338298,0.0482439398765564,0.0142374038696289,0.0689921379089356,0.085382061915869
3.149092985,0.00180917978286743,0.0184097290039063,0.0174988508224487,0.0254637199480028
3.153847621,-0.0725060701370239,0.00354194641113281,0.0590429306030273,0.0935721285708959
3.158602308,-0.150806784629822,-0.0301895141601563,0.0717365741729736,0.169706302563241
3.163356996,-0.237861931324005,-0.0612716674804688,0.0843484401702881,0.259705939416455
3.168111631,-0.250635385513306,-0.094482421875,0.15869677066803,0.311335332937381
3.172866319,-0.279857516288757,-0.0966005325317383,0.149596929550171,0.331709411442555
3.177621006,-0.323139548301697,-0.0749835968017578,0.0648102760314941,0.33799715878278
3.182375641,-0.304507851600647,-0.0606613159179688,0.00458657741546631,0.310525141699878
3.187130329,-0.24575287103653,-0.06304931640625,-0.0196007490158081,0.254467835460542
3.191885016,-0.192225217819214,-0.0843925476074219,-0.0364725589752197,0.21307952509689
3.196639652,-0.148562848567963,-0.0509958267211914,-0.05790114402771,0.167403813568636
3.201394339,-0.155108451843262,-0.0297307968139648,-0.0934106111526489,0.183488676458026
3.206149027,-0.161610662937164,-0.0181303024291992,-0.0882610082626343,0.185031672479878
3.210903662,-0.177639544010162,-0.0208396911621094,-0.102204561233521,0.205999690924057
3.21565835,-0.229263663291931,-0.0401029586791992,-0.0853180885314941,0.247889594036396
3.220413037,-0.278190314769745,-0.0757913589477539,-0.0496503114700317,0.292573639878763
3.225167673,-0.314959228038788,-0.0637283325195313,-0.0284004211425781,0.322594481684955
3.22992236,-0.370459377765656,-0.0470190048217773,-0.0191317796707153,0.37392106437364
3.234677048,-0.41376930475235,0.000401496887207031,-0.033594012260437,0.415131011145575
3.239431683,-0.428397059440613,0.0498294830322266,-0.0195519924163818,0.43172826908146
3.244186371,-0.421699404716492,0.101230621337891,-0.00560224056243897,0.433715819095889
3.248941058,-0.476990401744843,0.123764991760254,-0.0250521898269653,0.493421958122304
3.253695694,-0.501356244087219,0.150906562805176,-0.0159792900085449,0.523818873172868
3.258450381,-0.523639380931854,0.0995674133300781,0.038098931312561,0.534381324175067
3.263205016,-0.477359741926193,0.036829948425293,0.063249945640564,0.482938219585472
3.267959704,-0.474652111530304,-0.001617431640625,-0.0162148475646973,0.474931747040387
3.272714391,-0.436728298664093,-0.0231094360351563,-0.0546454191207886,0.440740030765056
3.277469079,-0.408920437097549,-0.0420236587524414,-0.01921546459198,0.41152295908063
3.282223714,-0.35790479183197,-0.0323047637939453,0.0540262460708618,0.363398229281016
3.286978402,-0.369112849235535,0.0152702331542969,0.0462411642074585,0.372311322361572
3.291733089,-0.43031707406044,0.0767030715942383,-0.0587385892868042,0.441028760163476
3.296487725,-0.488841772079468,0.116302490234375,-0.0609474182128906,0.506169077632493
3.301242412,-0.53058648109436,0.0915660858154297,-0.00643491744995117,0.538467984335413
3.3059971,-0.510569930076599,0.0196123123168945,0.0546786785125732,0.513863847898176
3.310751735,-0.521791100502014,-0.0446147918701172,0.101101636886597,0.533364765613427
3.315506423,-0.521222233772278,-0.0561151504516602,0.111687064170837,0.535999559134032
3.32026111,-0.535125017166138,-0.0271797180175781,0.136505842208862,0.552929802077737
3.325015746,-0.542145848274231,0.0110025405883789,0.139966487884521,0.560030172786353
3.329770433,-0.540067434310913,0.0180349349975586,0.11506450176239,0.552483422420407
3.334525121,-0.488566249608994,0.0273895263671875,0.111857652664185,0.501955476980935
3.339279756,-0.392727822065353,0.0461750030517578,0.122926712036133,0.414099323427412
3.344034444,-0.326432168483734,0.0505685806274414,0.13878321647644,0.358295859790779
3.348789131,-0.260961532592773,0.0454425811767578,0.126114130020142,0.293378123703715
3.353543766,-0.184358596801758,0.00951099395751953,0.127906918525696,0.2245856874948
3.358298454,-0.110921502113342,-0.0237455368041992,0.115497708320618,0.161886227877835
3.363053141,-0.0784987211227417,-0.0211429595947266,0.0914196968078613,0.122338198951805
3.367807829,-0.0486654043197632,-0.0138320922851563,0.0889831781387329,0.102360413960967
3.372562464,-0.0973808765411377,0.0456199645996094,0.0224798917770386,0.109861557518075
3.377317152,-0.176503956317902,0.102195739746094,0.00877082347869873,0.204143437716272
3.382071787,-0.243250966072083,0.106114387512207,0.0687165260314941,0.274140943096666
3.386826475,-0.300215721130371,0.100523948669434,0.0617475509643555,0.32256364258859
3.391581162,-0.338060855865479,0.109235763549805,0.066726565361023,0.361483096190801
3.396335798,-0.359212994575501,0.101277351379395,0.0455952882766724,0.375992031414705
3.401090485,-0.352045774459839,0.0981416702270508,0.0508182048797607,0.368985778448417
3.405845173,-0.34519499540329,0.118782043457031,0.00613117218017578,0.365111421310822
3.41059986,-0.333969175815582,0.167740821838379,-0.0785030126571655,0.381883642883805
3.415354496,-0.266383826732636,0.211601257324219,-0.0581856966018677,0.345139117653965
3.420109183,-0.199837028980255,0.19819164276123,-0.0238456726074219,0.282459521903849
3.424863871,-0.207630515098572,0.168292999267578,-0.0846347808837891,0.280349800317072
3.429618506,-0.203706562519074,0.131535530090332,-0.116394400596619,0.26897140327501
3.434373194,-0.204657793045044,0.104582786560059,-0.114677667617798,0.256852757331886
3.439127881,-0.153556883335114,0.0873594284057617,-0.0607824325561523,0.186831181172786
3.443882516,-0.129036724567413,0.0323219299316406,0.0330013036727905,0.137055716720231
3.448637152,-0.183097004890442,0.00383377075195313,0.0620701313018799,0.193369884412909
3.453391891,-0.296215176582336,-0.0125398635864258,0.0956567525863648,0.311529923653956
3.458146527,-0.349364936351776,-0.052490234375,0.126653671264648,0.375302858904161
3.462901214,-0.359654724597931,-0.0920944213867188,0.157455086708069,0.403267910583539
3.467655902,-0.339229345321655,-0.152715682983398,0.124021649360657,0.392147928805677
3.472410589,-0.243094086647034,-0.132167816162109,0.138403177261353,0.309384075330089
3.477165225,-0.185774385929108,-0.111796379089355,0.131399393081665,0.253527815726515
3.481919912,-0.171725809574127,-0.0560283660888672,0.0582671165466309,0.189799863938666
3.486674548,-0.0962098836898804,0.023005485534668,-0.0213167667388916,0.101192878348758
3.491429235,-0.0261349678039551,0.0373296737670898,-0.0599225759506226,0.0752811808769579
3.496183923,0.00528597831726074,0.0230808258056641,-0.0863715410232544,0.0895584121418735
3.50093861,0.0198003649711609,-0.0289850234985352,-0.086651086807251,0.0934911593953116
3.505693246,0.00335496664047241,-0.0972080230712891,-0.0704054832458496,0.120073259394707
3.510447933,-0.0200169086456299,-0.169596672058105,-0.0662404298782349,0.183170691856982
3.515202621,-0.0336073040962219,-0.170210838317871,-0.0620713233947754,0.184266192117456
3.519957256,-0.01141357421875,-0.163708686828613,-0.0507717132568359,0.171780588794631
3.524711944,0.027333676815033,-0.131175994873047,-0.0608686208724976,0.147170854879905
3.529466631,0.0919230580329895,-0.0704412460327148,-0.0590189695358276,0.129980985170327
3.534221266,0.198585152626038,-0.0529146194458008,-0.0666236877441406,0.216043365006263
3.538975954,0.259294807910919,-0.0189285278320313,-0.0812308788299561,0.272379408639742
3.543730641,0.345677733421326,-0.0516595840454102,-0.0719988346099854,0.356855209002539
3.548485329,0.405329346656799,-0.079371452331543,-0.0462491512298584,0.415608819319235
3.553239964,0.457581520080566,-0.0665254592895508,-0.0373457670211792,0.463897823413009
3.557994652,0.483556091785431,-0.0585517883300781,-0.0308471918106079,0.4880638842017
3.562749339,0.459738254547119,-0.0435495376586914,0.0183513164520264,0.462160789920391
3.567503975,0.48394125699997,-0.0358133316040039,0.05051589012146,0.487886861989593
3.572258662,0.491560578346252,-0.00681972503662109,0.0872745513916016,0.499294660650685
3.57701335,0.544401228427887,-0.00893974304199219,0.133349061012268,0.560566310611245
3.581767985,0.563830614089966,-0.0205707550048828,0.198162913322449,0.597993860807098
3.586522673,0.545445621013641,-0.0321531295776367,0.153489232063293,0.56754179897517
3.591277256,0.532227575778961,-0.0223217010498047,0.106942534446716,0.543324172507716
3.596031996,0.48855847120285,-0.0268392562866211,0.13914155960083,0.508694504658972
3.600786683,0.459828853607178,-0.0289831161499023,0.175877690315247,0.493168893566977
3.605541371,0.474307000637054,-0.0216550827026367,0.202949523925781,0.516357030282225
3.610296058,0.484222054481506,-0.0144338607788086,0.189603924751282,0.520220129045736
3.615050694,0.48956298828125,-0.0144376754760742,0.190799832344055,0.525628140409681
3.619805381,0.533146619796753,-0.0524568557739258,0.180306553840637,0.565249938767159
3.624560069,0.567223787307739,-0.064112663269043,0.158205270767212,0.592353075604164
3.629314704,0.563424050807953,-0.0638618469238281,0.112712979316711,0.578125602466985
3.634069391,0.564792335033417,-0.0802669525146484,0.105639815330505,0.580166300263598
3.638824079,0.559542596340179,-0.11082935333252,0.098697304725647,0.578888780889145
3.643578766,0.535810112953186,-0.122201919555664,0.0847088098526001,0.556058781742217
3.648333402,0.52695107460022,-0.0932188034057617,0.087695837020874,0.542270910303623
3.653088089,0.542374074459076,-0.0408163070678711,0.0931791067123413,0.551831453883981
3.657842777,0.558079481124878,-0.0363731384277344,0.0822243690490723,0.565275648968903
3.662597412,0.604874491691589,-0.0177907943725586,0.078677773475647,0.610229346313868
3.6673521,0.618445515632629,-0.0444917678833008,0.075240969657898,0.624592328427552
3.672106787,0.658463537693024,-0.0781412124633789,0.0885043144226074,0.668964343764206
3.676861423,0.670235276222229,-0.104470252990723,0.118452429771423,0.68859301286855
3.68161611,0.665859341621399,-0.102187156677246,0.157828092575073,0.691896368410869
3.686370798,0.640639841556549,-0.12846851348877,0.189966917037964,0.680449112804568
3.691125485,0.604170203208923,-0.156977653503418,0.233977913856506,0.666640294549912
3.695880121,0.573222994804382,-0.206682205200195,0.270769596099854,0.666797053001135
3.700634808,0.526377379894257,-0.210969924926758,0.307536721229553,0.645104867593299
3.705389496,0.520821988582611,-0.217692375183105,0.304001092910767,0.641141309303143
3.710144131,0.484991014003754,-0.176994323730469,0.274722695350647,0.584821198006638
3.714898819,0.492646217346191,-0.131965637207031,0.205613017082214,0.54990175273645
3.719653506,0.479434430599213,-0.12535285949707,0.175289869308472,0.525639849050911
3.724408141,0.480998933315277,-0.135458946228027,0.145360827445984,0.520421819411353
3.729162829,0.483086943626404,-0.128934860229492,0.179890036582947,0.531373332551148
3.733917516,0.468866169452667,-0.1082763671875,0.181113123893738,0.514160694914623
3.738672204,0.438621580600739,-0.0997219085693359,0.168362379074097,0.480290787653574
3.743426839,0.394703090190887,-0.0912837982177734,0.160668134689331,0.435818208348215
3.748181527,0.339541077613831,-0.0853176116943359,0.169795632362366,0.389098695733772
3.752936214,0.258999586105347,-0.0960330963134766,0.14571738243103,0.312308656192629
3.75769085,0.176982939243317,-0.080561637878418,0.0980587005615234,0.217781190732054
3.762445537,0.193048059940338,-0.0628280639648438,0.12423300743103,0.238009998117006
3.767200225,0.204347848892212,-0.0357542037963867,0.138384699821472,0.249372676090759
3.77195486,0.203986644744873,0.0124187469482422,0.145462155342102,0.250846596841188
3.776709548,0.161193788051605,0.0554065704345703,0.1076500415802,0.201598255959633
3.781464235,0.128533482551575,0.0648050308227539,0.0725966691970825,0.161216700547073
3.786218923,0.127161145210266,0.0622577667236328,0.111459493637085,0.180192133819532
3.790973558,0.11878365278244,0.0360136032104492,0.159515619277954,0.202118204469979
3.795728246,0.0892610549926758,0.0360841751098633,0.190662026405334,0.213592162648242
3.800482933,0.00073772668838501,0.00293922424316406,0.188441395759583,0.18846576059231
3.805237569,-0.103581607341766,-0.00857830047607422,0.181655764579773,0.209288206604251
3.809992256,-0.17612487077713,-0.0105094909667969,0.179843783378601,0.251940877839566
3.814746944,-0.18876051902771,-0.0171585083007813,0.173431396484375,0.25691126335223
3.819501631,-0.194141328334808,-0.0284967422485352,0.179131031036377,0.265689378723612
3.824256266,-0.159128665924072,-0.0160188674926758,0.206401467323303,0.261113197957774
3.829010954,-0.129150152206421,0.010594367980957,0.200443744659424,0.238683257102273
3.833765641,-0.0804423689842224,0.0346097946166992,0.180575966835022,0.200690040633826
3.838520329,-0.0178369879722595,0.0299520492553711,0.156337738037109,0.160177313403236
3.843274964,0.0252828001976013,0.0182180404663086,0.146741271018982,0.150013724720541
3.848029652,0.0941718816757202,0.00896263122558594,0.203796684741974,0.224681465120404
3.852784339,0.188718199729919,0.0282363891601563,0.322437584400177,0.374670319635712
3.857538975,0.206674098968506,0.0354413986206055,0.386125862598419,0.43938986980585
3.862293662,0.184189438819885,0.0828762054443359,0.37641054391861,0.4271757394501
3.86704835,0.187912583351135,0.125151634216309,0.305602967739105,0.379956898107744
3.871803037,0.26747477054596,0.0935401916503906,0.361293137073517,0.459157109526825
3.876557673,0.341750979423523,0.00288105010986328,0.47598797082901,0.585974897722241
3.88131236,0.318604409694672,-0.0917940139770508,0.573318839073181,0.662291025241268
3.886066996,0.255805790424347,-0.226040840148926,0.660591840744019,0.743580959874194
3.890821683,0.160637259483337,-0.333095550537109,0.742744028568268,0.829714207963053
3.895576371,0.0996411442756653,-0.45113468170166,0.753374934196472,0.883755990159139
3.900331058,0.0724902749061585,-0.506518363952637,0.716908156871796,0.88077976723273
3.905085694,0.145413100719452,-0.502145767211914,0.598189055919647,0.79443406775624
3.909840381,0.237030148506165,-0.459874153137207,0.478567481040955,0.704765465906497
3.914595069,0.361653447151184,-0.37291431427002,0.32014387845993,0.610205215103231
3.919349756,0.42424088716507,-0.206035614013672,0.127802789211273,0.488635403460266
3.924104391,0.458498597145081,-0.0832576751708984,-0.0675131678581238,0.470861797020218
3.928859079,0.502542912960053,-0.00893211364746094,-0.190041184425354,0.537349805804727
3.933613766,0.506296575069428,0.026850700378418,-0.259424030780792,0.569524371545588
3.938368454,0.517476797103882,-0.0253963470458984,-0.278580605983734,0.588246856357458
3.943123089,0.452951043844223,-0.0747814178466797,-0.274011850357056,0.534639507248415
3.947877777,0.33462119102478,-0.102359771728516,-0.217199802398682,0.411855094072154
3.952632464,0.177142530679703,-0.132044792175293,-0.200980961322784,0.298678171499787
3.9573871,0.0186547935009003,-0.111611366271973,-0.196523547172546,0.226774343775785
3.962141787,-0.10295170545578,-0.124510765075684,-0.177671551704407,0.240144049605726
3.966896475,-0.166709899902344,-0.15384578704834,-0.125608146190643,0.259303149435989
3.971651162,-0.213389128446579,-0.175756454467773,-0.0833140015602112,0.288732530696228
3.976405798,-0.209855422377586,-0.197420120239258,-0.048395574092865,0.292157720706361
3.981160485,-0.168380469083786,-0.176136016845703,-0.0254871249198914,0.245000963948773
3.985915173,-0.108302190899849,-0.164456367492676,-0.00263512134552002,0.196931981219656
3.99066986,-0.0392479598522186,-0.167047500610352,0.0248957276344299,0.173392811463378
3.995424496,0.0126880407333374,-0.176674842834473,0.0807808041572571,0.194680571163456
4.000179183,0.00727473199367523,-0.188538551330566,0.105516791343689,0.216179324448191
4.004933871,-0.0169753134250641,-0.197874069213867,0.0922389030456543,0.218975623684919
4.009688506,-0.0457039773464203,-0.21893310546875,0.0767885148525238,0.236467829162297
4.014443194,-0.0361119955778122,-0.216029167175293,0.0900892615318298,0.236830640624082
4.019197881,-0.0548471957445145,-0.224950790405273,0.1033795773983,0.25357131148465
4.023952569,-0.0969415977597237,-0.183917999267578,0.109777539968491,0.235105533989165
4.028707204,-0.159837454557419,-0.105205535888672,0.0926827192306519,0.212617739393978
4.033461891,-0.222188651561737,-0.0389432907104492,0.0379503667354584,0.228745725882556
4.038216579,-0.279367506504059,-0.0206108093261719,-0.0351203382015228,0.282319760744381
4.042971214,-0.388488233089447,-0.0308189392089844,-0.100441515445709,0.402444297124407
4.047725902,-0.539684534072876,-0.104915618896484,-0.238800182938576,0.599409885451839
4.052480589,-0.725775957107544,-0.166441917419434,-0.319088667631149,0.810105690388761
4.057235277,-0.844568967819214,-0.217875480651855,-0.332295000553131,0.933373683936447
4.061989912,-0.860940158367157,-0.216597557067871,-0.331001907587051,0.947467530231671
4.0667446,-0.801750481128693,-0.184403419494629,-0.296406626701355,0.874451452891399
4.071499287,-0.812149822711945,-0.0930795669555664,-0.276360213756561,0.862917208116312
4.076253923,-0.940938949584961,-0.0645818710327148,-0.303745031356812,0.99085718899652
4.08100861,-1.07974994182587,-0.0503921508789063,-0.381433069705963,1.14625062373308
4.085763298,-1.15226018428803,-0.0982894897460938,-0.454512149095535,1.24255609521883
4.090517985,-1.12281513214111,-0.158019065856934,-0.417900532484055,1.20843895219817
4.095272621,-1.03443789482117,-0.181781768798828,-0.321571946144104,1.09841471505829
4.100027308,-1.01368033885956,-0.0597085952758789,-0.308692276477814,1.0613217548403
4.104781996,-1.00072300434113,0.0813741683959961,-0.462859153747559,1.10557988535771
4.109536683,-0.947934627532959,0.224711418151855,-0.557254552841187,1.1223225544317
4.114291319,-0.931656956672669,0.322509765625,-0.568283498287201,1.1379557848465
4.119046006,-1.02096807956696,0.37482738494873,-0.524832725524902,1.20760953034664
4.123800694,-1.14410543441772,0.408000946044922,-0.429352223873138,1.28832656930707
4.128555381,-1.27013516426086,0.395759582519531,-0.305687695741653,1.36503258201988
4.133310016,-1.24384617805481,0.342933654785156,-0.110696986317635,1.29499445134937
4.138064704,-1.12988924980164,0.24718189239502,0.0697223618626595,1.15871040924339
4.142819391,-1.05484580993652,0.204144477844238,0.168949335813522,1.08762058119859
4.147574079,-1.08807420730591,0.24004077911377,0.0197993665933609,1.11441333048354
4.152328714,-1.00988125801086,0.273513793945313,-0.0862864628434181,1.04981679565055
4.157083402,-0.846579551696777,0.235265731811523,-0.135239124298096,0.889008730360306
4.161838089,-0.736421823501587,0.220981597900391,-0.143778085708618,0.782190582064274
4.166592725,-0.695616662502289,0.273655891418457,-0.128613620996475,0.758492947603785
4.171347412,-0.748146176338196,0.388422966003418,-0.216366812586784,0.870292881320605
4.1761021,-0.734306871891022,0.42658805847168,-0.31377574801445,0.90533925894056
4.180856787,-0.637571036815643,0.443202972412109,-0.349141031503677,0.851366643474217
4.185611423,-0.505892813205719,0.412010192871094,-0.358270645141602,0.744337149854185
4.19036611,-0.487182974815369,0.354583740234375,-0.36981937289238,0.706995932346901
4.195120798,-0.507328629493713,0.297232627868652,-0.486722111701965,0.763300718847621
4.199875485,-0.508873581886292,0.144371032714844,-0.403152912855148,0.665077129792121
4.204630121,-0.522682547569275,-0.0226325988769531,-0.255562543869019,0.582255522854216
4.209384808,-0.598746180534363,-0.112939834594727,-0.151165366172791,0.627776523034213
4.214139496,-0.641521692276001,-0.148152351379395,-0.0921220183372498,0.664820026129205
4.218894131,-0.66555517911911,-0.118782043457031,-0.0878830850124359,0.681759713485185
4.223648819,-0.635311126708984,-0.0774917602539063,-0.0357447564601898,0.641017073284235
4.228403506,-0.629703044891357,-0.0362434387207031,0.0044829249382019,0.630761134037085
4.233158194,-0.667701423168182,0.0312471389770508,-0.00547671318054199,0.668454612208136
4.237912829,-0.727746844291687,0.0460939407348633,0.00851738452911377,0.729254870801831
4.242667516,-0.793079018592835,0.0442085266113281,0.03693026304245,0.79516826388237
4.247422204,-0.844563484191895,-0.0580263137817383,0.0724527537822723,0.849649300271638
4.252176891,-0.83191454410553,-0.160120010375977,0.158084660768509,0.861806815004041
4.256931475,-0.764426946640015,-0.195147514343262,0.250866532325745,0.827867819247054
4.261686214,-0.751976847648621,-0.167959213256836,0.274497151374817,0.817941417725195
4.266440902,-0.715866446495056,-0.0738582611083984,0.255348086357117,0.76362455248483
4.271195589,-0.639628171920776,-0.0109186172485352,0.274491846561432,0.696124405796865
4.275950225,-0.439843654632568,-0.0125579833984375,0.324767172336578,0.546894742793407
4.280704912,-0.190570861101151,-0.0547847747802734,0.291549623012543,0.35259014071201
4.2854596,-0.0133986175060272,-0.0610723495483398,0.194061398506165,0.203885215797016
4.290214287,0.163671061396599,-0.0696926116943359,0.0968494415283203,0.202546515121377
4.294968923,0.295219898223877,-0.0830354690551758,0.0930575728416443,0.320483056169444
4.29972361,0.42413854598999,-0.136945724487305,0.110827207565308,0.459271496597143
4.304478246,0.488264203071594,-0.224201202392578,0.109578490257263,0.54833890677434
4.309232933,0.552209734916687,-0.387763977050781,0.163483142852783,0.694278928984612
4.313987621,0.525432944297791,-0.529547691345215,0.189011871814728,0.769562228834939
4.318742308,0.467964351177216,-0.570718765258789,0.236375272274017,0.774973426856589
4.323496996,0.358375698328018,-0.580696105957031,0.336652755737305,0.760904847251794
4.328251631,0.249293178319931,-0.542799949645996,0.406013548374176,0.722236717119767
4.333006319,0.138193294405937,-0.488151550292969,0.406310677528381,0.649982837731711
4.337761006,0.0344757288694382,-0.474130630493164,0.332792520523071,0.580292419706671
4.342515694,0.0124182403087616,-0.481572151184082,0.185429573059082,0.516188023934403
4.347270329,0.0886392891407013,-0.4913330078125,0.208042740821838,0.540875984079631
4.352025016,0.0962042212486267,-0.419774055480957,0.211564183235168,0.479817583534564
4.356779704,0.049678772687912,-0.24787425994873,0.133933782577515,0.28609069771041
4.361534391,-0.00552600622177124,-0.0689544677734375,0.104286134243011,0.125143330489613
4.366289027,-0.0144835114479065,0.0835075378417969,0.0172516107559204,0.0864921907106911
4.371043714,0.0273419171571732,0.185633659362793,-0.153489947319031,0.242418233328787
4.375798402,0.162757962942123,0.227890014648438,-0.245733082294464,0.372570477911861
4.380553089,0.382190823554993,0.217507362365723,-0.293129622936249,0.528492435268174
4.385307725,0.671424746513367,0.16889476776123,-0.317173957824707,0.761535260069977
4.390062412,0.987599790096283,0.134708404541016,-0.374895393848419,1.06491607931375
4.3948171,1.2686128616333,0.105366706848145,-0.47585916519165,1.35901533497983
4.399571787,1.52876460552216,0.0736932754516602,-0.584155559539795,1.63822758970949
4.404326423,1.70818066596985,0.0779266357421875,-0.694924354553223,1.84577181869875
4.40908111,1.90494632720947,-0.00384235382080078,-0.777082085609436,2.05735068498466
4.413835798,2.0666069984436,-0.11415958404541,-0.813990354537964,2.22406771343103
4.418590485,2.15749335289001,-0.166970252990723,-0.855948090553284,2.32708052436313
4.423345121,2.17305278778076,-0.198180198669434,-0.879000425338745,2.35246159530227
4.428099808,2.16354966163635,-0.176772117614746,-0.91202449798584,2.35456667029394
4.432854496,2.01181602478027,-0.0598478317260742,-1.11073970794678,2.29885366635954
4.437609131,1.79665982723236,0.133268356323242,-1.18171238899231,2.15457447304233
4.442363819,1.50375306606293,0.237583160400391,-0.754791259765625,1.69924362220903
4.447118454,1.2357736825943,0.0884513854980469,-0.393472909927368,1.2999158330584
4.451873194,1.02397799491882,-0.198979377746582,-0.39296305179596,1.11469443657138
4.456627881,0.90451854467392,-0.289997100830078,-0.557036399841309,1.10115469707805
4.461382516,0.784293651580811,-0.201642990112305,-0.628036975860596,1.02479601405329
4.466137204,0.689356982707977,0.0515079498291016,-0.491496920585632,0.848195343920847
4.470891891,0.573593854904175,0.282851219177246,-0.467827320098877,0.792386978694617
4.475646579,0.567738771438599,0.334680557250977,-0.595098853111267,0.887964544883848
4.480401214,0.597535014152527,0.216804504394531,-0.817950248718262,1.03590293736541
4.485155902,0.55106121301651,0.113446235656738,-1.02876234054565,1.17255723195113
4.489910589,0.311609625816345,0.163155555725098,-1.07489657402039,1.13098317366181
4.494665225,-0.0561206638813019,0.291630744934082,-0.925749659538269,0.972219343790539
4.499419912,-0.444861799478531,0.369710922241211,-0.598335266113281,0.832221891886157
4.5041746,-0.699633717536926,0.292343139648438,-0.381704688072205,0.84891125502631
4.508929287,-0.849293410778046,0.15534782409668,-0.404414176940918,0.953406036562271
4.513683923,-0.894018650054932,0.0185232162475586,-0.448812603950501,1.00052246833893
4.51843861,-0.826577305793762,-0.0345067977905273,-0.335776805877686,0.892841993251019
4.523193298,-0.706817269325256,-0.0134162902832031,-0.24957275390625,0.749704747586491
4.527947985,-0.608904480934143,0.103199005126953,-0.29296875,0.683553501956821
4.532702621,-0.449311912059784,0.174236297607422,-0.257822036743164,0.546545226265086
4.537457308,-0.245085597038269,0.0444393157958984,-0.177484035491943,0.305846996909431
4.542211996,0.0133087038993835,-0.0756158828735352,-0.235713601112366,0.247902773464891
4.546966683,0.0943523645401001,-0.0784158706665039,-0.53047788143158,0.544479751831811
4.551721319,-0.0208100080490112,0.0812482833862305,-0.428570508956909,0.436700150144001
4.556476006,-0.14813756942749,0.140328407287598,-0.150167942047119,0.253351953192442
4.561230694,-0.230452239513397,0.0273065567016602,-0.132379055023193,0.267166796111483
4.565985381,-0.191141545772553,-0.173965454101563,-0.190949559211731,0.321342191291835
4.570740016,-0.225963830947876,-0.291340827941895,-0.120532393455505,0.387901003858744
4.575494704,-0.320156157016754,-0.23170280456543,0.0405102968215942,0.397274764700448
4.580249391,-0.301705718040466,-0.0526084899902344,0.172725081443787,0.351607661004604
4.585004079,-0.120885193347931,0.0785140991210938,0.123312473297119,0.189693594520786
4.589758714,0.109751045703888,0.106747627258301,-0.00245225429534912,0.153122047757673
4.594513402,0.273168802261353,-0.00125217437744141,-0.0493204593658447,0.277588310599765
4.599268089,0.350532710552216,-0.171197891235352,-0.00289475917816162,0.390115724832022
4.604022777,0.428064525127411,-0.350445747375488,0.131856441497803,0.568715729244922
4.608777412,0.508268415927887,-0.460111618041992,0.338120222091675,0.76443755027758
4.6135321,0.615175068378449,-0.411812782287598,0.362779140472412,0.824402108907894
4.618286787,0.557670950889587,-0.282186508178711,0.134499073028564,0.639309092309607
4.623041475,0.720394372940064,-0.157438278198242,0.112006783485413,0.745855470954315
4.62779611,0.950088202953339,-0.152266502380371,0.0895358324050903,0.966369156390418
4.632550798,0.976910054683685,-0.123103141784668,0.0982743501663208,0.989527910854439
4.637305485,0.899246156215668,-0.0484514236450195,0.035436749458313,0.90124744278919
4.642060173,0.803209066390991,0.076385498046875,0.0586693286895752,0.808963311141762
4.646814808,0.748340964317322,0.186794281005859,0.201223134994507,0.797117966394493
4.651569496,0.698649287223816,0.246959686279297,0.243228435516357,0.779910241649159
4.656324183,0.678089559078217,0.252174377441406,0.117892503738403,0.733004781162143
4.661078871,0.734530687332153,0.228778839111328,0.0140277147293091,0.769462061857698
4.665833506,0.691234469413757,0.14573860168457,0.0317836999893189,0.707145695957844
4.670588194,0.586746335029602,0.0557355880737305,0.149596452713013,0.608076324249605
4.675342829,0.456873714923859,-0.0101261138916016,0.190729022026062,0.495190558688159
4.680097569,0.423547446727753,0.0437183380126953,0.12661337852478,0.444223682765395
4.684852204,0.479207515716553,0.219477653503418,0.0768295526504517,0.532647222528256
4.689606891,0.573414027690888,0.447671890258789,-0.0447560548782349,0.728846261518042
4.694361579,0.703682661056519,0.513171195983887,-0.173545122146606,0.888049476819843
4.699116266,0.848501563072205,0.425721168518066,-0.194945216178894,0.969121794807752
4.703870902,0.981651604175568,0.302657127380371,-0.106470584869385,1.03275224239748
4.708625589,1.04836404323578,0.363941192626953,-0.0298101902008057,1.11013918329199
4.713380277,1.03429007530212,0.57349967956543,-0.148916363716126,1.19198738487979
4.718134964,1.08738541603088,0.653876304626465,-0.179434537887573,1.28146713501968
4.7228896,1.22207021713257,0.437960624694824,-0.0117099285125732,1.29823042901147
4.727644287,1.28103196620941,0.162769317626953,0.0696580410003662,1.2932087967096
4.732398975,1.14053392410278,-0.0114383697509766,0.227353930473328,1.16302978381189
4.737153662,0.980349957942963,-0.0249843597412109,0.544948697090149,1.12190879341001
4.741908298,0.922335147857666,-0.059661865234375,0.800049364566803,1.22243226760447
4.746662985,1.06663131713867,-0.12739372253418,0.906679153442383,1.40570217846068
4.751417673,1.4153825044632,-0.211416244506836,0.958075523376465,1.72218267639498
4.75617236,1.87052571773529,-0.299723625183105,0.889766693115234,2.09293704644436
4.760926996,2.33652544021606,-0.411356925964355,0.785662591457367,2.49916613311945
4.765681683,2.75864601135254,-0.512747764587402,0.720013797283173,2.89680133152393
4.770436371,3.05357074737549,-0.544108390808106,0.81457382440567,3.20684872820374
4.775191058,3.11393690109253,-0.524598121643066,0.901948273181915,3.28410062280574
4.779945694,3.00660181045532,-0.425595283508301,0.915451765060425,3.17156707734993
4.784700381,2.94179248809814,-0.345173835754395,1.0273185968399,3.1350712143958
4.789455069,2.85704708099365,-0.29285717010498,1.09905207157135,3.07512581874653
4.794209756,2.68790698051453,-0.220717430114746,1.02592504024506,2.88549515821063
4.798964391,2.52769684791565,-0.0905523300170898,1.00860941410065,2.72300275975745
4.803719079,2.32629776000977,0.0259151458740234,1.00635027885437,2.53477291818466
4.808473766,2.1099739074707,0.131113052368164,0.923556923866272,2.30697592408976
4.813228454,1.88600039482117,0.263304710388184,0.831798732280731,2.07803175885308
4.817983089,1.68785333633423,0.346014022827148,0.709487795829773,1.86331626982619
4.822737777,1.66360521316528,0.453368186950684,0.714178085327148,1.86632670124263
4.827492464,1.76525497436523,0.496912002563477,0.733116805553436,1.97497010443139
4.832247152,1.86142110824585,0.526979446411133,0.804441630840302,2.09516639353346
4.837001787,1.97365355491638,0.589024543762207,0.784627377986908,2.2040640621985
4.841756475,2.21428656578064,0.749970436096191,0.666601181030273,2.43102401982496
4.846511162,2.50932717323303,1.06711959838867,0.698815703392029,2.81492637326417
4.85126585,2.68911480903626,1.48299026489258,0.787853062152863,3.17038026575487
4.856020537,2.70837473869324,1.80876350402832,0.611209392547607,3.31368315628318
4.860775173,2.81813597679138,2.1473388671875,0.57781457901001,3.58982231899248
4.86552986,2.90846705436707,2.59673595428467,0.653897881507874,3.95345426962977
4.870284548,2.96266460418701,3.07797050476074,0.796027779579163,4.3456810986244
4.875039235,3.29152679443359,3.38786506652832,1.03933703899384,4.83652766229055
4.879793871,3.6611475944519,3.68220043182373,1.01790535449982,5.29138290423243
4.884548558,3.96687388420105,4.34132385253906,0.65372908115387,5.91697075515227
4.889303246,4.55036067962647,5.47722721099854,0.346656918525696,7.12923356713435
4.894057933,5.18186092376709,6.6831111907959,0.0221349000930786,8.45672204672755
4.898812569,5.52940320968628,7.77021408081055,0.0811020135879517,9.53714340111983
4.903567256,5.48585319519043,8.52371501922607,0.854955136775971,10.1724751803119
4.908321944,5.40713787078857,8.59750270843506,1.6501601934433,10.2896657593572
4.913076631,5.84212446212769,8.14764499664307,2.39786148071289,10.3084565723002
4.917831266,7.01890468597412,7.44455528259277,3.06663370132446,10.6813233545506
4.922585954,8.50201606750488,6.75160789489746,2.83913850784302,11.2218177602949
4.927340641,9.99355888366699,6.27016258239746,1.33418440818787,11.8729190179192
4.932095329,11.2799530029297,6.26595687866211,-0.326483488082886,12.9076003510159
4.936850016,12.238073348999,6.61701965332031,-1.12079083919525,13.9574911962405
4.941604652,12.7510709762573,7.06047248840332,-1.64614391326904,14.6679880210015
4.946359339,12.7349433898926,7.34810829162598,-2.34665727615356,14.8889314250874
4.951114027,12.4159841537476,7.63786125183106,-2.17056345939636,14.7378740915913
4.955868714,12.1866874694824,7.7282075881958,-1.37124180793762,14.495545802105
4.96062335,12.002347946167,7.49691295623779,-0.60088050365448,14.1640784195068
4.965378037,11.441593170166,6.91083240509033,-0.31673264503479,13.3704890849687
4.970132725,10.6023445129395,6.08279514312744,-0.447195291519165,12.2315203287682
4.974887412,9.75692367553711,5.39067268371582,-0.615525007247925,11.1640397091628
4.979642048,9.31566715240479,4.90803813934326,-0.895653128623962,10.5675298626716
4.984396735,9.01477909088135,4.57921886444092,-0.996994733810425,10.1601912366396
4.989151423,8.55520629882813,4.38920450210571,-1.17493176460266,9.68695698495073
4.99390611,7.80048179626465,4.22972202301025,-1.65274381637573,9.02605266815801
4.998660746,6.94155931472778,4.02624559402466,-2.26271915435791,8.33761340401348
5.003415433,5.66281604766846,4.02489709854126,-2.92749190330505,7.53906433766777
5.008170121,4.62580442428589,4.26075029373169,-3.29752206802368,7.10110635227925
5.012924808,3.76024889945984,4.57280778884888,-3.26819610595703,6.76248095351392
5.017679496,2.37478542327881,5.06998538970947,-3.19739294052124,6.44730015390784
5.022434131,0.862827301025391,5.6688289642334,-2.59935522079468,6.29577162395515
5.027188819,-0.0769667625427246,6.01557397842407,-1.82299900054932,6.28620549524377
5.031943506,-0.488632678985596,5.9988808631897,-1.18196105957031,6.13370731711718
5.036698194,-0.711573123931885,5.71862745285034,-0.704788208007813,5.80566642801174
5.041452829,-0.962681293487549,5.17682361602783,-0.469924688339233,5.28650047167359
5.046207516,-1.24587535858154,4.59485721588135,-0.728899955749512,4.81624473931187
5.050962204,-0.984500885009766,3.39052677154541,-0.942528963088989,3.65421327065249
5.055716891,-0.920869827270508,1.55316400527954,-1.57048225402832,2.39305958477658
5.060471527,-1.7947883605957,-0.177213191986084,-1.88130474090576,2.60614222614542
5.065226214,-2.26998567581177,-1.52248668670654,-2.26709485054016,3.55112936133492
5.069980902,-2.02172088623047,-2.41582632064819,-2.56933236122131,4.0651003598652
5.074735589,-2.0088381767273,-2.96051216125488,-2.91582417488098,4.6154191246338
5.079490225,-2.87563467025757,-3.17610836029053,-3.72420024871826,5.676848295106
5.084244912,-3.86967325210571,-3.15935611724854,-4.85698795318604,6.9675127650441
5.0889996,-3.91960906982422,-2.37798690795898,-5.61384201049805,7.24799138475656
5.093754287,-2.65685319900513,-0.814587593078613,-3.80659484863281,4.71302304359943
5.098508975,-1.78797626495361,1.32713651657105,-0.638236999511719,2.31635423137298
5.10326361,-2.07823657989502,3.30085372924805,1.30345177650452,4.11262557955101
5.108018298,-2.57688188552856,4.28459787368774,2.10820531845093,5.42610623337947
5.112772985,-2.05502986907959,3.73420143127441,2.17706966400147,4.7861300038817
5.117527673,-0.736609935760498,2.25382089614868,1.27469968795776,2.69205537161797
5.122282256,0.775192260742188,0.515754222869873,-0.398407697677612,1.01274584822228
5.127036996,1.6763334274292,-1.0302882194519,-1.64504504203796,2.56471455826795
5.131791683,2.325364112854,-2.31298303604126,-2.35044646263123,4.03507216243521
5.136546371,2.81112909317017,-3.31874799728394,-2.5597779750824,5.04668191286719
5.141301006,3.29959559440613,-4.07021427154541,-2.20097041130066,5.68315458652475
5.146055694,3.59201550483704,-4.61615562438965,-1.77285170555115,6.11183043821157
5.150810381,3.35175704956055,-4.85012245178223,-1.6911940574646,6.13335963861279
5.155565069,2.3879919052124,-4.74067211151123,-2.03022742271423,5.68315940267042
5.160319756,1.20687532424927,-4.20738029479981,-2.34814429283142,4.96712981643406
5.165074391,0.177519798278809,-3.40458250045776,-2.30458974838257,4.11507341241371
5.169829079,-0.842903137207031,-2.56536197662354,-1.88696122169495,3.29426629494334
5.174583766,-1.80860376358032,-1.85994148254395,-1.15283203125,2.8389173260947
5.179338454,-2.64847993850708,-1.37465763092041,-0.351567506790161,3.00461799547843
5.184093089,-3.25609588623047,-1.10481929779053,0.490854740142822,3.4732872724579
5.188847777,-3.25791883468628,-1.14602708816528,0.799596548080444,3.54496373181932
5.193602464,-2.81833600997925,-1.5338830947876,0.60005521774292,3.2643347680594
5.198357152,-1.94821310043335,-2.1816201210022,0.319231510162354,2.94226263174148
5.203111787,-0.992130279541016,-2.80597066879272,-0.0441298484802246,2.97653176183862
5.207866475,-0.191249847412109,-3.32686853408813,-0.531543254852295,3.37448795804932
5.212621162,0.395198345184326,-3.67861270904541,-0.918836832046509,3.81216924061775
5.21737585,0.748678684234619,-3.87705206871033,-1.2046320438385,4.12833996622866
5.222130537,0.89860200881958,-3.90250968933105,-1.24505543708801,4.19371320991312
5.226885173,0.716597557067871,-3.75488042831421,-1.2199649810791,4.01259936260675
5.23163986,0.188666820526123,-3.59220123291016,-1.24237465858459,3.80565364414339
5.236394548,-0.379389762878418,-3.47448539733887,-1.16206407546997,3.68325647817198
5.241149235,-1.01416826248169,-3.48550605773926,-0.963057279586792,3.75563164686412
5.245903871,-1.62243700027466,-3.53906679153442,-0.717873573303223,3.95886827793615
5.250658558,-2.23755025863647,-3.611083984375,-0.582571983337402,4.28788395574128
5.255413246,-2.8378701210022,-3.64402389526367,-0.727273941040039,4.67561165605587
5.260167933,-3.38986492156982,-3.68316221237183,-1.1234917640686,5.1302145971746
5.264922569,-3.637531042099,-3.71384477615356,-1.42734885215759,5.39088117559203
5.269677256,-3.80499505996704,-3.59461879730225,-1.51059031486511,5.4480413731594
5.274431944,-4.02516937255859,-3.43276071548462,-1.43166875839233,5.48046622481289
5.279186631,-4.04632949829102,-3.40712451934814,-1.36792278289795,5.46374346387663
5.283941319,-4.29561138153076,-3.2398247718811,-1.36695265769959,5.5513332868801
5.288695954,-4.46919822692871,-3.03112745285034,-1.28708410263062,5.55140089655307
5.293450641,-4.47660541534424,-2.92189407348633,-1.19228720664978,5.47713518223757
5.298205329,-4.36105251312256,-2.8735294342041,-1.05804204940796,5.32873375294406
5.302960016,-4.15166282653809,-2.85713577270508,-0.964961290359497,5.13134283992227
5.307714652,-3.89886546134949,-2.87006902694702,-0.928874969482422,4.92963049467965
5.312469339,-3.65563535690308,-2.91454362869263,-0.963243722915649,4.77347597625976
5.317224027,-3.36488890647888,-2.96409511566162,-1.08873391151428,4.61450742091883
5.321978714,-3.15805530548096,-3.00659894943237,-1.35006904602051,4.56460699121261
5.32673335,-2.93195796012878,-3.04906892776489,-1.55313336849213,4.50615379969965
5.331488037,-2.76734900474548,-2.96234750747681,-1.50676476955414,4.32481945749061
5.336242725,-3.16537547111511,-2.51951265335083,-1.3380264043808,4.26120411883218
5.340997412,-2.69676733016968,-2.73427963256836,-0.879947066307068,3.93994238303697
5.3457521,-3.12503480911255,-2.69765663146973,-0.866507649421692,4.21829697460764
5.350506735,-3.38806319236755,-2.62024545669556,-1.2392578125,4.4587462783446
5.355261423,-3.45971727371216,-2.6957631111145,-1.32931637763977,4.58299731585448
5.36001611,-3.80043768882751,-2.47001552581787,-1.26635766029358,4.70616245450858
5.364770798,-4.23278999328613,-2.17046213150024,-1.20345282554626,4.90670110103062
5.369525433,-4.58228874206543,-1.86657810211182,-1.18841230869293,5.08859585174494
5.374280121,-4.82519912719727,-1.49632167816162,-1.35039842128754,5.22925435199489
5.379034808,-5.0501708984375,-1.18170928955078,-1.67043662071228,5.44894682046469
5.383789496,-4.83177423477173,-1.09477519989014,-2.06046199798584,5.36563869816467
5.388544183,-4.67149209976196,-1.10867977142334,-2.65722393989563,5.48751750251935
5.393298819,-5.62463855743408,-0.685765266418457,-3.11210799217224,6.46467702652982
5.398053506,-5.01445484161377,-1.50164794921875,-2.58152961730957,5.83643719121719
5.402808194,-4.90807199478149,-1.97553110122681,-2.3344030380249,5.78284803378168
5.407562881,-4.81538343429565,-2.17047262191772,-2.06294536590576,5.67050373463377
5.412317569,-4.63030672073364,-2.40036249160767,-2.11466097831726,5.62790116050432
5.417072204,-4.47904300689697,-2.61787700653076,-2.28054141998291,5.66709585654
5.421826891,-4.17010498046875,-2.79245948791504,-2.28281402587891,5.51351479698082
5.426581579,-3.78219509124756,-2.79328298568726,-2.16875338554382,5.17792630245882
5.431336266,-3.34626388549805,-2.5781044960022,-2.03092527389526,4.68708462179229
5.436090902,-2.75977158546448,-2.21934509277344,-2.07667779922485,4.10541380698073
5.440845589,-2.18812823295593,-1.74141454696655,-2.57355785369873,3.80047757717106
5.445600277,-1.81555151939392,-1.14946460723877,-3.22100687026978,3.87199967215821
5.450354964,-2.00513434410095,-0.355358123779297,-3.97987842559814,4.47060123658672
5.455109548,-2.28762984275818,0.301148414611816,-5.17179155349731,5.66315888333774
5.459864287,-1.48135960102081,0.236797332763672,-5.24737930297852,5.45760834007607
5.464618975,-0.228300333023071,-0.230656623840332,-2.73120260238647,2.75041654580947
5.469373662,0.0264151096343994,-0.767356872558594,-0.134103298187256,0.779434424736683
5.474128298,-0.730359077453613,-1.52954578399658,0.85645067691803,1.89906357169895
5.478882985,-1.76905739307404,-2.40032482147217,1.04690873622894,3.16024385302112
5.483637673,-2.21034288406372,-3.34641695022583,1.3898059129715,4.24448849045682
5.48839236,-2.04332280158997,-4.08139085769653,1.86711978912354,4.93143546157942
5.493147048,-1.51556885242462,-4.39313316345215,2.03603148460388,5.07365668375
5.497901735,-0.986613035202026,-4.32052755355835,1.45831990242004,4.66551825203609
5.502656371,-0.774278163909912,-3.89273500442505,0.299398422241211,3.98026781825348
5.507411058,-0.832125425338745,-3.19371747970581,-0.959285795688629,3.436930796726
5.512165746,-0.939530372619629,-2.58189582824707,-2.06679749488831,3.43810344141519
5.516920433,-1.03672385215759,-2.25017356872559,-2.77708768844605,3.72159824058728
5.521675069,-1.15758681297302,-2.38642120361328,-3.19955062866211,4.15597613275103
5.526429756,-1.39328181743622,-2.80083847045898,-3.41160750389099,4.62871430539915
5.531184444,-1.98298859596252,-2.56561326980591,-3.37488555908203,4.68022090919029
5.535939131,-2.05446672439575,-1.17155933380127,-2.29260516166687,3.29384626562441
5.540693819,-0.219190359115601,-0.484746932983398,-2.97702860832214,3.02418969929707
5.545448454,0.969691514968872,-0.203922271728516,-1.9682731628418,2.20362999858706
5.550203141,-0.734907388687134,1.49107646942139,-1.54194402694702,2.26737497777643
5.554957829,-1.89191424846649,3.60727691650391,-4.15587615966797,5.81920036864079
5.559712516,-0.815461277961731,5.43583488464356,-3.27492475509644,6.39831306990415
5.564467204,0.981576919555664,7.90645122528076,0.914584398269653,8.01947185594577
5.569221839,3.95079374313355,11.0215625762939,5.5212345123291,12.9447921329035
5.573976527,8.51164722442627,13.4237070083618,7.12131881713867,17.4171533269579
5.578731214,11.519437789917,14.6717100143433,6.55063343048096,19.7703646926728
5.583485902,11.1393947601318,14.2598934173584,1.19639551639557,18.1345537063399
5.588240537,8.97255992889404,10.5419292449951,-5.20315265655518,14.7889114356499
5.592995225,6.53181552886963,5.58078479766846,-5.88478231430054,10.4134737694861
5.597749912,2.82869434356689,2.01125049591064,-3.67864656448364,5.05757657312427
5.6025046,-1.79994356632233,-0.323758125305176,-2.68011879920959,3.24463448535007
5.607259235,-6.27249908447266,-2.02385377883911,-2.18508553504944,6.94368977405485
5.612013923,-10.0071992874146,-3.22290086746216,-1.38579893112183,10.6043182834644
5.61676861,-12.9932193756104,-3.78255081176758,-0.533446907997131,13.5431165538066
5.621523298,-14.938401222229,-3.67218160629272,-0.114820897579193,15.3835604677334
5.626277985,-15.2811765670776,-3.33203172683716,-0.376834571361542,15.6447689978799
5.631032621,-14.4172773361206,-2.67871379852295,-1.40073847770691,14.7307658213666
5.635787308,-12.4019355773926,-1.57910919189453,-2.24754214286804,12.7024815524247
5.640541996,-9.92105484008789,-0.144232749938965,-3.11588788032532,10.3998504560856
5.645296683,-8.06113433837891,1.25466728210449,-5.59393835067749,9.89182607415615
5.650051371,-7.02023029327393,2.37607765197754,-8.12797260284424,10.999696223597
5.654806006,-6.34105825424194,3.10312938690186,-8.7997989654541,11.2816175084937
5.659560641,-5.38898944854736,3.11602401733398,-7.2186017036438,9.53199997424498
5.664315381,-3.9117636680603,2.1287727355957,-5.27009439468384,6.89981617751156
5.669070069,-2.1661684513092,0.768387794494629,-4.10383558273315,4.7036339198839
5.673824756,-1.00014889240265,-0.281603813171387,-3.56729626655579,3.7155351119253
5.678579391,-0.461211740970612,-0.694436073303223,-3.01702094078064,3.13007557209452
5.683334079,-0.223609447479248,-0.588001251220703,-2.38385534286499,2.46546404397733
5.688088766,-0.032770574092865,-0.0512332916259766,-2.00693249702454,2.00785378160621
5.692843454,0.185992419719696,0.652578353881836,-1.91488289833069,2.03155807262988
5.697598089,0.361651420593262,1.27234649658203,-1.67776012420654,2.13647756640674
5.702352777,0.440673291683197,1.45450592041016,-1.17142200469971,1.91885641349367
5.707107464,0.401511907577515,1.15661334991455,-0.922995090484619,1.53325998779914
5.711862152,0.111302435398102,0.620573043823242,-1.27064192295074,1.41846044400454
5.716616839,-0.757871985435486,0.221714019775391,-1.91996443271637,2.07600348645391
5.721371475,-2.1471745967865,0.17241096496582,-2.1330349445343,3.03148847342855
5.726126162,-3.5307252407074,0.211760520935059,-1.71451151371002,3.93070133363491
5.73088085,-4.62961864471436,0.09600830078125,-1.01067101955414,4.73962470023443
5.735635537,-5.40884113311768,-0.219932556152344,-0.486507892608643,5.43512857825203
5.740390225,-5.87090873718262,-0.42275333404541,-0.423288822174072,5.90131029592168
5.74514486,-5.98961734771729,-0.393182754516602,-0.505514860153198,6.02375745895872
5.749899548,-5.54059553146362,-0.157918930053711,-0.480686187744141,5.5636495614688
5.754654235,-4.5627326965332,0.108267784118652,-0.528608679771423,4.59452703870821
5.759408923,-3.26946067810059,0.347952842712402,-0.692288756370544,3.36001607564527
5.76416361,-1.89036428928375,0.494211196899414,-0.747136116027832,2.09187337791109
5.768918246,-0.702428102493286,0.554331779479981,-0.795793652534485,1.19748757752552
5.773672933,0.117963753640652,0.621644020080566,-1.03621387481689,1.21412352305602
5.778427621,0.673837602138519,0.581405639648438,-1.20306849479675,1.49648369020291
5.783182308,1.12280511856079,0.378787994384766,-0.968991637229919,1.53072416586982
5.787936944,1.37425804138184,0.214741706848145,-0.635260224342346,1.52913528426826
5.792691631,1.19958567619324,0.203977584838867,-0.36879825592041,1.2714656122816
5.797446319,0.814649760723114,0.269870758056641,-0.214692950248718,0.884634117354057
5.802201006,0.384734451770782,0.331057548522949,-0.137133717536926,0.525761690596497
5.806955694,0.0746902823448181,0.41379451751709,-0.305916786193848,0.51999002017262
5.811710329,-0.0847793966531754,0.532345771789551,-0.324352502822876,0.62911375197698
5.816465016,-0.141671404242516,0.576735496520996,-0.171140909194946,0.618048404679956
5.821219704,-0.184368997812271,0.513614654541016,-0.106876373291016,0.556070588937617
5.825974391,-0.210286021232605,0.326407432556152,-0.0763888359069824,0.395723738237881
5.830729079,-0.157217919826508,0.0989294052124023,-0.00778615474700928,0.18591698614166
5.835483714,0.0273296535015106,-0.120935440063477,-0.00124502182006836,0.123991292852328
5.840238402,0.149898543953896,-0.218486785888672,-0.0280040502548218,0.266440004350201
5.844993089,0.205828443169594,-0.134189605712891,0.040675163269043,0.249051535241128
5.849747777,0.271615624427795,-0.045100212097168,0.0421764850616455,0.278546104723556
5.854502412,0.380810171365738,0.10855770111084,-0.202426433563232,0.444721960432811
5.8592571,0.535763621330261,0.240629196166992,-0.446988821029663,0.738067797776313
5.864011787,0.672059893608093,0.331988334655762,-0.3930823802948,0.846400917203103
5.868766475,0.670126795768738,0.356416702270508,-0.358771204948425,0.839535327169027
5.873521162,0.608839452266693,0.297298431396484,-0.319958209991455,0.749296398021606
5.87827585,0.762936413288117,0.238405227661133,-0.226254463195801,0.830722640484243
5.883030485,1.0008692741394,0.177329063415527,-0.357470870018005,1.07748332866898
5.887785173,1.22240245342255,0.164226531982422,-0.261908650398254,1.2608862966556
5.89253986,1.38951754570007,0.148921012878418,-0.0805907249450684,1.39979689342142
5.897294548,1.45922744274139,0.0717086791992188,0.0168741941452026,1.46108576159996
5.902049235,1.42933869361877,0.0330324172973633,0.0950641632080078,1.43287732789474
5.906803871,1.34998321533203,0.0519828796386719,0.218653917312622,1.36856364010224
5.911558558,1.29051518440247,0.142834663391113,0.318291187286377,1.33683972941544
5.916313246,1.1362384557724,0.17646598815918,0.226723551750183,1.1719989941426
5.921067933,0.930272042751312,0.152889251708984,0.237789273262024,0.972278219076882
5.925822569,0.74417644739151,0.100863456726074,0.315611243247986,0.814605719731651
5.930577256,0.651779413223267,0.118428230285645,0.1018887758255,0.670240980446193
5.935331944,0.772372007369995,0.241280555725098,-0.0950236320495606,0.814741870157449
5.940086631,1.06518983840942,0.364084243774414,-0.191853761672974,1.14192582696231
5.944841266,1.11464405059814,0.491706848144531,-0.284112453460693,1.25097037145471
5.949595954,0.889931857585907,0.490352630615234,-0.295214653015137,1.05810023384008
5.954350641,0.565458834171295,0.353018760681152,-0.194035291671753,0.694273456895307
5.959105329,0.294113039970398,0.237555503845215,-0.0214128494262695,0.378673484427329
5.963860016,0.0758602619171143,0.241888046264648,0.232000708580017,0.343640706327833
5.968614652,0.0300099849700928,0.282224655151367,0.4347003698349,0.519149079463512
5.973369339,0.0799720287322998,0.298827171325684,0.486534595489502,0.576549318194205
5.978124027,0.154065489768982,0.246313095092773,0.559626221656799,0.630545655696559
5.982878714,0.154505133628845,0.194106101989746,0.759122490882874,0.798633815532212
5.987633402,0.205589532852173,0.14223575592041,0.872317671775818,0.907433847050576
5.992388089,0.383633732795715,0.138487815856934,0.753553628921509,0.856852839022182
5.997142725,0.745816469192505,0.20904541015625,0.663411021232605,1.01983154114739
6.001897412,1.30173230171204,0.282195091247559,0.449018120765686,1.40561670722167
6.0066521,1.89358246326447,0.439238548278809,0.139309167861938,1.94884378330516
6.011406787,2.47626876831055,0.591614723205566,0.0159676074981689,2.5460105966223
6.016161475,3.01898503303528,0.725025177001953,0.0834684371948242,3.10594576851971
6.02091611,3.33102750778198,0.863508224487305,0.176834106445313,3.44567279534197
6.025670798,3.47004222869873,1.00238418579102,0.494676470756531,3.645637383997
6.030425485,3.57934308052063,1.0461368560791,0.879344701766968,3.83136350588712
6.035180173,3.78286504745483,1.08811187744141,1.05622565746307,4.0754960513498
6.039934808,4.02355718612671,1.08298969268799,1.25490629673004,4.3516283065162
6.044689496,4.19210815429688,1.12891864776611,1.63531446456909,4.63923285561582
6.049444183,4.231858253479,1.21883773803711,2.08015942573547,4.87044689383612
6.054198871,4.27193403244019,1.33127784729004,2.34341955184937,5.05107278508197
6.058953558,4.50786018371582,1.24871063232422,2.38464975357056,5.25039390202431
6.063708194,4.92017555236816,0.937898635864258,2.34251570701599,5.52948109273321
6.068462881,5.38016891479492,0.666962623596191,2.4298894405365,5.94099481452649
6.073217569,5.62540435791016,0.548370361328125,2.59652829170227,6.21995525810178
6.077972256,5.65621566772461,0.598858833312988,2.70886611938477,6.29994946287675
6.082726944,5.54419851303101,0.780031204223633,2.62852215766907,6.18512041635529
6.087481631,5.3824954032898,1.01763343811035,2.65667176246643,6.08808175325221
6.092236266,5.21886157989502,1.20648384094238,2.71659755706787,6.00599881248961
6.096990954,4.97938823699951,1.33715152740479,2.77697229385376,5.85609567398292
6.101745641,4.76475286483765,1.48384189605713,2.95692014694214,5.80069249235514
6.106500329,4.66574478149414,1.63215160369873,3.19128108024597,5.88365262032286
6.111255016,4.71079444885254,1.71518135070801,3.31729221343994,6.0114772755543
6.116009652,4.88536930084229,1.84062767028809,3.12236046791077,6.08308131770522
6.120764339,5.38525009155273,2.08741092681885,2.96058106422424,6.49024214985963
6.125519027,6.11731719970703,2.49382495880127,3.08979058265686,7.29297871186024
6.130273714,6.71853303909302,2.9810037612915,3.33726239204407,8.07232245983585
6.135028402,7.11506748199463,3.48214054107666,3.60733413696289,8.70415691476463
6.139783037,7.30224514007568,3.92578506469727,3.95296978950501,9.18479954145426
6.144537725,7.372971534729,4.2977409362793,4.31943893432617,9.56497982824156
6.149292412,7.37940692901611,4.62449550628662,4.72393417358398,9.90742950457033
6.1540471,7.38564395904541,4.90119934082031,4.99893856048584,10.1763882787438
6.158801787,7.37006759643555,5.20193195343018,5.01275777816773,10.3201614796828
6.163556423,7.2538013458252,5.58627986907959,4.72680234909058,10.3037283149231
6.16831111,7.07013130187988,6.11865520477295,4.65043354034424,10.4427597048805
6.173065798,6.96694755554199,6.71533203125,4.89606857299805,10.8446083379301
6.177820485,7.1777925491333,7.26645755767822,5.02442836761475,11.3827497441183
6.182575173,7.45102214813232,7.78664970397949,4.70431709289551,11.7592620506115
6.187329808,7.76304435729981,8.35234451293945,3.8707799911499,12.0419871406724
6.192084496,8.21456336975098,8.80551242828369,2.98409628868103,12.4064874618255
6.196839183,9.01314926147461,9.05051422119141,2.40220880508423,12.9968947991754
6.201593871,9.59950923919678,9.11879062652588,1.47191894054413,13.3217666054984
6.206348558,9.58239936828613,9.07748317718506,-0.0342409610748291,13.1994034307928
6.211103194,9.25155925750732,9.00053405761719,-1.63608145713806,13.010677328713
6.215857881,8.55167007446289,9.04307365417481,-2.91981291770935,12.7841131742377
6.220612569,7.38635444641113,9.31455039978027,-3.50246119499207,12.3929946171412
6.225367256,6.16118717193604,9.64697265625,-3.51774978637695,11.9749268205538
6.230121944,4.93766975402832,9.98036956787109,-3.58917689323425,11.6991687773987
6.234876631,3.84565901756287,10.0728874206543,-3.31579113006592,11.2803645812873
6.239631266,2.86659741401672,10.0002593994141,-2.62285947799683,10.7285581804329
6.244385954,2.02283716201782,9.71583080291748,-1.8693208694458,10.0986929296769
6.249140641,1.27935695648193,9.29694747924805,-1.55264186859131,9.51213348445542
6.253895329,0.443424701690674,8.78707790374756,-1.53193497657776,8.9306320227104
6.258649964,-0.153800487518311,7.98803329467773,-1.77730965614319,8.18481277248666
6.263404652,-0.297627925872803,6.99596643447876,-1.98798251152039,7.27902487979837
6.268159339,-0.465684413909912,5.83629083633423,-1.8990204334259,6.15511423989893
6.272914027,-1.13726615905762,4.54573774337769,-1.61296129226685,4.95567856892043
6.277668714,-2.22993183135986,3.04253530502319,-1.34422373771667,4.00456670713144
6.282423402,-3.27668237686157,1.37451028823853,-1.29414296150208,3.7816308566694
6.287178037,-3.91166925430298,-0.228641033172607,-1.24227333068848,4.11055666610367
6.291932725,-3.9237494468689,-1.51346063613892,-1.11393976211548,4.3505441743037
6.296687412,-3.83414888381958,-2.20058631896973,-0.933753728866577,4.51831537596745
6.3014421,-3.79788112640381,-2.17194271087647,-1.15355753898621,4.52459182527834
6.306196787,-3.53125286102295,-1.68621683120728,-1.59676384925842,4.22643215497753
6.310951423,-3.3279275894165,-0.854721546173096,-1.32459020614624,3.68241635018511
6.31570611,-3.36050319671631,0.54907751083374,-0.570887327194214,3.45259035919335
6.320460798,-2.98575162887573,1.69131231307983,0.496001482009888,3.46716996985518
6.325215485,-2.55559825897217,2.13137054443359,1.15983057022095,3.5240643879702
6.329970173,-1.76323461532593,1.94287729263306,0.731361627578735,2.72372140888295
6.334724808,-1.42622900009155,1.81714153289795,0.832408428192139,2.45540959976338
6.339479496,-0.641515254974365,0.964690685272217,1.05649280548096,1.5679116648105
6.344234183,0.271035194396973,-0.351901531219482,0.911834001541138,1.01426624248416
6.348988871,1.12713575363159,-1.71842336654663,0.585648775100708,2.13691327891075
6.353743558,1.70790386199951,-2.95956563949585,0.273368120193481,3.42792860273598
6.358498141,2.00556468963623,-3.94139409065247,0.160731554031372,4.42523578293939
6.363252881,2.00782108306885,-4.60965967178345,0.135030508041382,5.02976550441314
6.368007569,1.8240270614624,-4.98750114440918,0.249751329421997,5.31644788491133
6.372762256,1.45322704315186,-5.04623365402222,0.468896627426147,5.27221082442138
6.377516944,0.920316696166992,-4.81531620025635,0.777450799942017,4.96373676538406
6.382271579,0.211597919464111,-4.23379373550415,1.00018954277039,4.35547496787468
6.387026266,-0.467267990112305,-3.74037337303162,1.16832900047302,3.94635591370239
6.391780954,-1.29104042053223,-3.3739378452301,1.15139222145081,3.79156247456657
6.396535641,-1.83220624923706,-3.34022045135498,1.06134009361267,3.95480659422217
6.401290329,-2.01920080184937,-3.52618598937988,0.998202800750732,4.18420462469448
6.406045016,-2.19823265075684,-3.85917854309082,1.55404591560364,4.70537400448789
6.410799652,-2.19609928131104,-4.04890060424805,1.8672399520874,4.97021460252235
6.415554339,-2.20147848129272,-4.11650323867798,1.85934090614319,5.02486368202149
6.420309027,-2.20272731781006,-4.07406806945801,1.59064960479736,4.8969586925403
6.425063714,-2.10733699798584,-3.99380850791931,1.20944619178772,4.67484071513014
6.429818402,-1.89454126358032,-3.96202898025513,0.885412693023682,4.480057575161
6.434573037,-1.61748886108398,-4.00006437301636,0.692736625671387,4.36997359677974
6.439327725,-1.30983686447144,-4.03316020965576,0.543550491333008,4.27521941248718
6.444082412,-1.01925134658813,-4.05828857421875,0.507494211196899,4.21498871096407
6.4488371,-0.83146333694458,-4.00556373596191,0.61328387260437,4.13666402212372
6.453591787,-0.865474224090576,-3.83391332626343,0.655257940292358,3.98463298111403
6.458346423,-1.0590353012085,-3.6794638633728,0.588189363479614,3.87375487329576
6.46310111,-1.35979843139648,-3.62329626083374,0.481778860092163,3.89992800418569
6.467855798,-1.64602518081665,-3.56236410140991,0.357600212097168,3.9405221479632
6.472610485,-1.90816068649292,-3.55853796005249,0.222673892974854,4.04398977264091
6.477365173,-2.22733068466187,-3.58274126052856,0.0505142211914063,4.21895586671308
6.48211986,-2.49809455871582,-3.69671249389648,-0.0682251453399658,4.4621535559943
6.486874496,-2.85401296615601,-3.75894641876221,-0.11701488494873,4.72109740139
6.491629183,-3.20185828208923,-3.82891941070557,-0.327486753463745,5.00197639798065
6.496383871,-3.47011995315552,-3.96362829208374,-0.902099370956421,5.34470438866124
6.501138558,-3.70205998420715,-4.08862161636353,-1.50797581672668,5.71804738632826
6.505893246,-3.77838563919067,-4.13194942474365,-1.92506408691406,5.92073271021484
6.510647881,-3.76605343818665,-4.11487340927124,-2.13204646110535,5.97168014765667
6.515402569,-3.65778207778931,-4.04192638397217,-2.16515564918518,5.86552961012435
6.520157204,-3.63032555580139,-3.87463903427124,-2.2397997379303,5.76270718959724
6.524911944,-3.71978640556335,-3.76344680786133,-2.64007949829102,5.91357442972625
6.529666631,-3.78792572021484,-3.74154710769653,-3.27232360839844,6.24945260155313
6.534421319,-3.79652714729309,-3.73203611373901,-3.55080533027649,6.39921326632466
6.539175954,-3.70433712005615,-3.76310062408447,-3.32062530517578,6.23775538341995
6.543930641,-3.56306505203247,-3.73623466491699,-2.88102340698242,5.91229041133156
6.548685329,-3.59876918792725,-3.63435697555542,-2.53551006317139,5.70863394992062
6.553440016,-3.85359954833984,-3.46685886383057,-2.28862690925598,5.66631740996357
6.558194704,-4.37260437011719,-3.27907371520996,-2.05406379699707,5.83876455163957
6.562949391,-4.71601819992065,-2.78650426864624,-2.57449722290039,6.05255893419373
6.567704027,-4.87483882904053,-2.54379844665527,-2.87393951416016,6.20439299830194
6.572458714,-5.10680341720581,-2.23031520843506,-3.07500219345093,6.36469838725212
6.577213402,-5.56640863418579,-1.66677474975586,-3.12288069725037,6.59662239319644
6.581968089,-5.96671962738037,-0.872488021850586,-3.10131525993347,6.78093907962128
6.586722777,-4.56310701370239,-1.44384670257568,-2.42702054977417,5.36628993514744
6.591477412,-4.4863224029541,-1.41501045227051,-2.87593412399292,5.51365036693746
6.5962321,-4.84167003631592,-1.30800533294678,-2.70474028587341,5.69809325174687
6.600986787,-5.47047519683838,-0.662040710449219,-2.56582593917847,6.0784750992068
6.605741475,-5.65135622024536,-0.536588668823242,-2.28337907791138,6.11878864981124
6.610496162,-5.28145885467529,-0.694826126098633,-1.95448017120361,5.67420335542932
6.615250798,-5.02619743347168,-0.401124954223633,-1.80273914337158,5.35475772450839
6.620005485,-4.71985149383545,-0.0820703506469727,-1.49484574794769,4.95159544757781
6.624760173,-4.34815645217896,0.187630653381348,-1.21628868579865,4.51896315120134
6.62951486,-3.81388282775879,0.333480834960938,-1.23577558994293,4.02294083971644
6.634269548,-3.28508710861206,0.472256660461426,-1.6954687833786,3.72685364079818
6.639024235,-3.20643854141235,0.679931640625,-2.37019109725952,4.04491792170198
6.643778871,-3.62498664855957,0.891362190246582,-3.74314594268799,5.28641620615497
6.648533558,-2.94270610809326,0.472551345825195,-5.07688856124878,5.88707240284925
6.653288246,-0.914253234863281,-0.634381294250488,-2.50929737091064,2.74497211272027
6.658042933,0.697938680648804,-1.74698877334595,1.68129551410675,2.52306218351789
6.662797621,0.799180269241333,-2.86484146118164,3.11446356773376,4.30649381924448
6.667552308,0.0467319488525391,-3.90560388565063,2.51921844482422,4.64783682581429
6.672306944,-0.186939716339111,-4.83883571624756,2.11121988296509,5.28266286456036
6.677061631,0.496056318283081,-5.51449680328369,2.25988030433655,5.98020115499996
6.681816319,1.5827841758728,-5.62757921218872,2.18468475341797,6.24080932321032
6.686571006,2.24142026901245,-5.21291399002075,1.24703979492188,5.80978014556599
6.691325694,1.91415810585022,-4.32421493530273,-0.263536155223846,4.7362735738128
6.696080329,0.724593639373779,-3.4136381149292,-1.45304131507874,3.78011774753698
6.700835016,-0.588675498962402,-2.92493581771851,-2.26473331451416,3.74577166505402
6.705589704,-1.56339406967163,-3.02865600585938,-2.96115922927856,4.5150218382699
6.710344391,-2.22017812728882,-3.44365358352661,-3.33812785148621,5.2849823531489
6.715099079,-2.90657329559326,-3.67190027236938,-3.5898802280426,5.90069995717232
6.719853766,-3.93451046943665,-2.76419115066528,-3.60557174682617,6.01009758431874
6.724608402,-3.6420636177063,-2.29251623153687,-3.97895193099976,5.86108492827792
6.729363089,-2.77772688865662,-2.68787240982056,-4.82835054397583,6.18493279955023
6.734117777,-3.68162083625793,-2.72930479049683,-4.56818008422852,6.4708350236534
6.738872464,-5.82802581787109,-1.28178977966309,-4.77694463729858,7.64382561554334
6.743627152,-7.59748268127441,1.56332492828369,-4.52973604202271,8.9824404553583
6.748381787,-7.42907810211182,4.42508506774902,-3.51531386375427,9.33434576522617
6.753136475,-5.90167808532715,6.73259353637695,-2.34954571723938,9.25624032889668
6.757891162,-1.4861181974411,7.36847972869873,-1.55830430984497,7.67667591676835
6.76264585,5.38309001922607,7.20385837554932,0.0973124653100967,8.99348115948258
